timestamp,Ax,Ay,Az,Dx,Dy,flex,B1,B2
415502,0.7,5.9,8.9,0,0,948,1,1
415522,0.6,6.3,7.7,0,0,947,1,1
415542,0.6,6.4,7.7,0,0,945,1,1
415562,0.7,6.4,8.0,0,0,945,1,1
415582,0.7,6.1,6.8,0,0,946,1,1
415602,0.8,6.7,6.7,0,0,947,1,1
415622,0.7,6.3,7.7,0,0,945,1,1
415642,0.7,6.3,7.6,0,0,945,1,1
415662,0.7,6.2,7.7,0,0,945,1,1
415682,0.6,6.2,7.5,0,0,947,1,1
415702,0.6,6.2,7.7,0,0,941,1,1
415722,0.6,6.2,7.6,0,0,943,1,1
415742,0.7,6.2,7.3,0,0,943,1,1
415762,0.7,6.3,7.2,0,0,946,1,1
415782,0.8,7.1,8.5,0,0,947,1,1
415802,1.0,5.6,3.8,0,0,946,1,1
415822,0.7,6.9,7.0,0,0,943,1,1
415842,0.8,8.2,7.4,0,0,946,1,1
415862,1.3,7.9,7.9,0,0,944,1,1
415882,1.1,5.8,5.2,0,0,945,1,1
415902,0.7,9.1,3.6,0,0,947,1,1
415922,0.4,6.2,0.3,0,0,944,1,1
415942,0.8,4.3,5.5,0,0,944,1,1
415962,10.3,26.9,15.7,0,0,945,1,1
415982,0.8,8.5,10.2,0,0,943,1,1
416002,0.8,10.7,4.5,0,0,944,1,1
416022,0.7,11.3,6.8,0,0,944,1,1
416042,2.4,11.5,3.0,0,0,950,1,1
416062,-0.9,-2.5,-8.3,0,0,950,1,1
416082,1.2,3.6,1.0,0,0,944,1,1
416102,2.2,8.6,7.8,0,0,947,1,1
416122,0.3,7.8,3.1,0,0,945,1,1
416142,0.8,10.4,7.6,0,0,946,1,1
416162,0.8,9.5,6.4,0,0,945,1,1
416182,2.1,7.7,4.6,0,0,945,1,1
416202,3.0,6.7,7.0,0,0,945,1,1
416222,1.1,10.5,7.8,0,0,945,1,1
416242,1.9,7.1,11.6,0,0,944,1,1
416262,-1.4,10.4,5.3,0,0,943,1,1
416282,0.3,5.4,13.0,0,0,944,1,1
416302,-0.7,5.8,-6.0,0,0,947,1,1
416322,-0.8,3.5,3.6,0,0,945,1,1
416342,4.8,6.9,2.6,0,0,947,1,1
416362,0.3,5.5,7.0,0,0,948,1,1
416382,0.9,10.3,11.0,0,0,945,1,1
416402,0.5,9.3,11.9,0,0,945,1,1
416422,0.5,6.1,1.9,0,0,945,1,1
416442,0.6,5.6,3.6,0,0,945,1,1
416462,1.1,5.8,4.1,0,0,947,1,1
416482,0.8,7.6,8.9,0,0,945,1,1
416502,0.9,6.3,4.1,0,0,943,1,1
416522,0.7,8.2,8.9,0,0,945,1,1
416542,0.8,8.0,7.3,0,0,943,1,1
416562,0.8,6.3,6.5,0,0,946,1,1
416582,0.8,6.7,6.7,0,0,944,1,1
416602,0.8,7.4,7.1,0,0,946,1,1
416622,0.8,6.8,6.6,0,0,947,1,1
416642,0.8,7.0,6.8,0,0,944,1,1
416662,0.8,7.6,7.0,0,0,945,1,1
416682,0.8,7.0,6.9,0,0,945,1,1
416702,0.8,6.8,6.4,0,0,944,1,1
416722,0.8,7.1,7.0,0,0,946,1,1
416742,0.8,7.1,6.8,0,0,947,1,1
416762,0.8,6.9,6.6,0,0,946,1,1
416782,0.8,7.2,6.9,0,0,946,1,1
416802,0.8,7.1,6.8,0,0,942,1,1
416822,0.8,6.9,6.7,0,0,944,1,1
416842,0.8,7.2,6.8,0,0,946,1,1
416862,0.8,7.1,6.8,0,0,943,1,1
416882,0.8,7.0,6.7,0,0,948,1,1
416902,0.8,7.1,6.8,0,0,947,1,1
416922,0.8,7.0,6.8,0,0,945,1,1
416942,0.8,7.0,6.8,0,0,946,1,1
416962,0.8,7.1,6.8,0,0,945,1,1
416982,0.8,7.1,6.8,0,0,946,1,1
417002,0.8,7.1,6.8,0,0,947,1,1
417022,0.8,7.1,6.8,0,0,945,1,1
417042,0.8,7.0,6.8,0,0,945,1,1
417062,0.8,7.0,6.8,0,0,944,1,1
417082,0.8,7.1,6.8,0,0,944,1,1
417102,0.8,7.1,6.8,0,0,946,1,1
417122,0.8,7.0,6.8,0,0,945,1,1
417142,0.8,7.0,6.8,0,0,949,1,1
417162,0.8,6.8,6.2,0,0,945,1,1
417182,0.8,7.3,6.9,0,0,945,1,1
417202,0.7,7.0,7.0,0,0,945,1,1
417222,0.8,7.3,7.1,0,0,946,1,1
417242,0.8,7.5,6.8,0,0,946,1,1
417262,0.7,6.5,6.4,0,0,946,1,1
417282,0.8,7.5,7.3,0,0,945,1,1
417302,0.7,6.7,7.3,0,0,944,1,1
417322,0.7,6.7,6.7,0,0,942,1,1
417342,0.8,7.2,7.1,0,0,945,1,1
417362,0.8,7.2,7.0,0,0,945,1,1
417382,0.8,6.9,6.7,0,0,943,1,1
417402,0.8,6.9,6.8,0,0,948,1,1
417422,0.8,7.1,7.0,0,0,945,1,1
417442,0.7,7.2,7.1,0,0,945,1,1
417462,0.7,6.9,6.9,0,0,945,1,1
417482,0.7,7.0,6.9,0,0,945,1,1
417502,0.7,6.8,6.9,0,0,946,1,1
417522,0.8,7.0,6.9,0,0,946,1,1
417542,0.8,7.0,6.9,0,0,947,1,1
417562,0.9,6.2,5.2,0,0,945,1,1
417582,0.7,6.9,6.9,0,0,946,1,1
417602,0.1,5.1,6.1,0,0,948,1,1
417622,0.3,6.8,8.2,0,0,946,1,1
417642,0.4,7.7,5.2,0,0,945,1,1
417662,0.6,5.5,5.4,0,0,945,1,1
417682,0.7,7.3,7.1,0,0,945,1,1
417702,1.5,9.4,9.5,0,0,948,1,1
417722,0.9,9.5,9.7,0,0,946,1,1
417742,1.2,6.9,3.9,0,0,945,1,1
417762,0.9,6.9,3.7,0,0,946,1,1
417782,-0.5,8.5,3.5,0,0,944,1,1
417802,0.8,7.7,0.7,0,0,945,1,1
417822,1.4,7.4,1.1,0,0,945,1,1
417842,0.9,7.3,5.2,0,0,947,1,1
417862,-0.2,3.0,3.4,0,0,946,1,1
417882,1.3,7.6,8.1,0,0,945,1,1
417902,0.8,9.3,10.5,0,0,946,1,1
417922,0.5,10.2,10.3,0,0,920,1,1
417942,1.0,6.6,7.1,0,0,947,1,1
417962,1.5,6.4,5.3,0,0,949,1,1
417982,1.0,9.3,5.0,0,0,945,1,1
418002,1.1,9.2,6.3,0,0,945,1,1
418022,0.7,10.6,4.2,0,0,948,1,1
418042,1.2,7.9,3.1,0,0,946,1,1
418062,1.4,7.1,3.5,0,0,944,1,1
418082,4.4,8.9,4.3,0,0,946,1,1
418102,1.6,4.3,2.2,0,0,946,1,1
418122,0.5,6.3,7.7,0,0,945,1,1
418142,1.0,8.0,4.3,0,0,942,1,1
418162,0.4,6.3,3.4,0,0,944,1,1
418182,0.4,28.5,16.0,0,0,944,1,1
418202,0.7,12.8,4.7,0,0,946,1,1
418222,0.6,6.7,8.0,0,0,946,1,1
418242,0.7,5.7,5.6,0,0,944,1,1
418262,0.8,7.3,6.3,0,0,945,1,1
418282,0.8,7.9,6.4,0,0,947,1,1
418302,0.6,7.5,8.2,0,0,945,1,1
418322,0.6,7.9,7.5,0,0,948,1,1
418342,0.7,7.5,6.4,0,0,946,1,1
418362,0.8,6.8,6.5,0,0,945,1,1
418382,0.8,6.7,6.1,0,0,944,1,1
418402,0.8,7.2,6.6,0,0,943,1,1
418422,0.7,7.8,7.2,0,0,946,1,1
418442,0.7,7.5,6.7,0,0,945,1,1
418462,0.7,7.2,6.4,0,0,945,1,1
418482,0.7,7.1,6.4,0,0,950,1,1
418502,0.7,7.0,6.3,0,0,947,1,1
418522,0.7,7.3,6.7,0,0,947,1,1
418542,0.7,7.5,6.7,0,0,945,1,1
418562,0.7,7.2,6.7,0,0,945,1,1
418582,0.7,7.2,6.5,0,0,946,1,1
418602,0.7,7.3,6.6,0,0,946,1,1
418622,0.7,7.2,6.6,0,0,946,1,1
418642,0.7,7.3,6.6,0,0,946,1,1
418662,0.7,7.3,6.6,0,0,944,1,1
418682,0.7,7.2,6.6,0,0,945,1,1
418702,0.7,7.2,6.6,0,0,943,1,1
418722,0.7,7.3,6.6,0,0,945,1,1
418742,0.7,7.3,6.6,0,0,948,1,1
418762,0.7,7.3,6.6,0,0,946,1,1
418782,0.7,7.2,6.6,0,0,946,1,1
418802,0.7,7.3,6.6,0,0,945,1,1
418822,0.7,7.3,6.6,0,0,946,1,1
418842,0.7,7.2,6.6,0,0,946,1,1
418862,0.7,7.2,6.6,0,0,944,1,1
418882,0.7,7.2,6.6,0,0,945,1,1
418902,0.8,7.2,6.6,0,0,946,1,1
418922,0.8,7.2,6.6,0,0,945,1,1
418942,0.7,7.2,6.6,0,0,945,1,1
418962,0.7,7.2,6.6,0,0,945,1,1
418982,0.7,7.2,6.5,0,0,945,1,1
419002,0.7,7.2,6.3,0,0,945,1,1
419022,0.7,7.3,6.9,0,0,938,1,1
419042,0.7,7.3,6.8,0,0,945,1,1
419062,0.7,7.1,6.4,0,0,946,1,1
419082,0.7,7.1,6.5,0,0,945,1,1
419102,0.7,7.1,6.3,0,0,946,1,1
419122,0.7,7.3,6.8,0,0,944,1,1
419142,0.7,6.3,6.5,0,0,945,1,1
419162,0.7,7.0,6.7,0,0,946,1,1
419182,0.7,7.3,6.6,0,0,945,1,1
419202,0.7,6.9,6.3,0,0,946,1,1
419222,0.7,7.2,6.7,0,0,945,1,1
419242,0.7,7.6,6.7,0,0,945,1,1
419262,0.7,7.1,6.7,0,0,946,1,1
419282,0.7,7.1,6.7,0,0,945,1,1
419302,0.7,7.4,6.7,0,0,948,1,1
419322,0.7,6.6,5.8,0,0,945,1,1
419342,0.7,7.1,6.7,0,0,947,1,1
419362,0.6,7.7,7.3,0,0,945,1,1
419382,0.6,7.1,7.4,0,0,945,1,1
419402,0.8,5.8,6.1,0,0,945,1,1
419422,0.6,5.6,10.8,0,0,945,1,1
419442,-0.1,11.0,9.9,0,0,946,1,1
419462,1.3,8.2,7.2,0,0,946,1,1
419482,0.8,9.7,4.2,0,0,944,1,1
419502,1.3,8.3,4.1,0,0,944,1,1
419522,0.7,7.7,3.1,0,0,945,1,1
419542,1.2,8.1,3.1,0,0,946,1,1
419562,1.7,7.4,2.5,0,0,946,1,1
419582,3.0,8.1,-0.1,0,0,947,1,1
419602,1.0,5.8,1.8,0,0,945,1,1
419622,1.9,4.1,2.1,0,0,944,1,1
419642,2.6,4.7,5.8,0,0,944,1,1
419662,-0.2,9.7,9.6,0,0,946,1,1
419682,0.5,11.0,13.4,0,0,945,1,1
419702,0.6,11.4,7.0,0,0,946,1,1
419722,1.1,12.1,7.1,0,0,945,1,1
419742,0.5,6.5,10.7,0,0,944,1,1
419762,0.2,11.0,2.4,0,0,942,1,1
419782,0.9,8.7,1.7,0,0,943,1,1
419802,0.8,7.5,2.0,0,0,945,1,1
419822,1.5,6.2,1.1,0,0,944,1,1
419842,1.2,5.5,4.2,0,0,948,1,1
419862,2.6,4.1,1.6,0,0,946,1,1
419882,2.1,6.3,5.8,0,0,945,1,1
419902,0.4,10.5,8.5,0,0,944,1,1
419922,1.1,10.4,8.9,0,0,946,1,1
419942,1.2,7.8,5.7,0,0,946,1,1
419962,0.8,8.0,5.9,0,0,945,1,1
419982,0.7,6.1,3.5,0,0,946,1,1
420002,1.0,7.5,4.4,0,0,944,1,1
420022,0.4,12.6,1.5,0,0,943,1,1
420042,0.9,2.9,6.9,0,0,944,1,1
420062,1.0,5.4,8.0,0,0,944,1,1
420082,0.5,8.7,1.7,0,0,947,1,1
420102,0.6,11.5,7.2,0,0,949,1,1
420122,0.7,7.9,6.6,0,0,947,1,1
420142,0.6,8.0,6.4,0,0,946,1,1
420162,0.7,7.0,5.5,0,0,944,1,1
420182,0.7,6.8,5.2,0,0,944,1,1
420202,0.7,7.7,6.5,0,0,946,1,1
420222,0.7,7.9,6.7,0,0,944,1,1
420242,0.7,7.9,6.5,0,0,944,1,1
420262,0.7,7.7,6.2,0,0,945,1,1
420282,0.7,7.4,5.8,0,0,944,1,1
420302,0.7,7.4,6.0,0,0,945,1,1
420322,0.7,7.5,6.1,0,0,944,1,1
420342,0.7,7.7,6.3,0,0,944,1,1
420362,0.7,7.9,6.5,0,0,950,1,1
420382,0.7,7.6,6.4,0,0,946,1,1
420402,0.7,7.4,6.0,0,0,946,1,1
420422,0.7,7.5,6.0,0,0,943,1,1
420442,0.7,7.6,6.2,0,0,946,1,1
420462,0.7,7.8,6.4,0,0,945,1,1
420482,0.7,7.7,6.4,0,0,947,1,1
420502,0.7,7.2,5.7,0,0,945,1,1
420522,0.6,7.7,6.6,0,0,946,1,1
420542,0.6,7.9,6.5,0,0,946,1,1
420562,0.7,7.6,6.2,0,0,942,1,1
420582,0.7,7.5,6.1,0,0,944,1,1
420602,0.7,7.4,6.0,0,0,946,1,1
420622,0.7,7.6,6.0,0,0,943,1,1
420642,0.7,7.8,6.2,0,0,947,1,1
420662,0.7,7.8,6.3,0,0,947,1,1
420682,0.7,7.6,6.2,0,0,946,1,1
420702,0.7,7.6,6.1,0,0,944,1,1
420722,0.7,7.6,6.2,0,0,945,1,1
420742,0.7,7.6,6.1,0,0,945,1,1
420762,0.7,7.6,6.2,0,0,946,1,1
420782,0.7,7.7,6.2,0,0,947,1,1
420802,0.7,7.6,6.1,0,0,946,1,1
420822,0.7,7.6,6.2,0,0,942,1,1
420842,0.7,7.7,6.2,0,0,946,1,1
420862,0.7,7.6,6.2,0,0,945,1,1
420882,0.7,7.6,6.2,0,0,944,1,1
420902,0.7,7.6,6.2,0,0,947,1,1
420922,0.7,7.6,6.2,0,0,945,1,1
420942,0.7,7.6,6.2,0,0,945,1,1
420962,0.7,7.6,6.2,0,0,943,1,1
420982,0.7,7.6,6.2,0,0,945,1,1
421002,0.7,7.0,5.7,0,0,944,1,1
421022,0.7,7.6,6.1,0,0,945,1,1
421042,0.4,7.6,6.4,0,0,947,1,1
421062,0.5,10.0,4.8,0,0,946,1,1
421082,0.7,7.7,4.8,0,0,945,1,1
421102,0.6,6.7,7.7,0,0,944,1,1
421122,0.7,7.3,6.2,0,0,943,1,1
421142,0.6,8.6,7.7,0,0,944,1,1
421162,0.4,7.1,5.9,0,0,946,1,1
421182,0.4,9.6,7.2,0,0,946,1,1
421202,0.9,8.7,6.7,0,0,946,1,1
421222,1.5,8.5,5.7,0,0,945,1,1
421242,1.1,5.9,3.5,0,0,945,1,1
421262,0.7,6.7,2.1,0,0,945,1,1
421282,1.3,7.6,1.4,0,0,945,1,1
421302,1.3,7.8,3.1,0,0,948,1,1
421322,1.8,6.5,0.4,0,0,945,1,1
421342,1.0,5.6,6.5,0,0,946,1,1
421362,2.3,5.8,8.2,0,0,944,1,1
421382,1.2,11.5,11.5,0,0,944,1,1
421402,2.2,12.0,9.6,0,0,945,1,1
421422,1.7,9.5,6.9,0,0,945,1,1
421442,-1.8,9.2,3.0,0,0,947,1,1
421462,-0.4,6.6,2.3,0,0,946,1,1
421482,0.4,6.5,3.5,0,0,945,1,1
421502,0.8,7.4,3.9,0,0,944,1,1
421522,2.9,6.7,5.8,0,0,944,1,1
421542,1.1,7.4,6.6,0,0,945,1,1
421562,0.9,9.0,8.2,0,0,946,1,1
421582,0.5,10.7,8.7,0,0,947,1,1
421602,0.6,8.5,5.7,0,0,947,1,1
421622,0.5,8.0,5.4,0,0,943,1,1
421642,0.7,7.1,4.4,0,0,946,1,1
421662,0.7,6.8,4.4,0,0,946,1,1
421682,0.7,7.8,5.8,0,0,944,1,1
421702,0.7,8.1,6.2,0,0,947,1,1
421722,0.6,8.3,6.6,0,0,946,1,1
421742,0.2,10.0,4.7,0,0,945,1,1
421762,0.7,7.5,6.9,0,0,946,1,1
421782,0.7,7.0,6.4,0,0,945,1,1
421802,0.6,7.5,6.1,0,0,946,1,1
421822,0.6,7.4,6.0,0,0,943,1,1
421842,0.6,7.6,6.3,0,0,945,1,1
421862,0.6,8.0,6.4,0,0,943,1,1
421882,0.7,7.7,6.2,0,0,943,1,1
421902,0.7,7.5,6.1,0,0,946,1,1
421922,0.7,7.7,6.1,0,0,945,1,1
421942,0.6,7.6,6.0,0,0,944,1,1
421962,0.6,7.7,6.1,0,0,949,1,1
421982,0.6,7.8,6.3,0,0,946,1,1
422002,0.6,7.6,6.1,0,0,946,1,1
422022,0.6,7.6,6.1,0,0,946,1,1
422042,0.5,7.1,7.6,0,0,947,1,1
422062,0.7,7.9,5.9,0,0,943,1,1
422082,0.7,7.8,5.7,0,0,945,1,1
422102,0.7,7.7,5.6,0,0,945,1,1
422122,0.7,8.0,5.3,0,0,944,1,1
422142,0.6,7.3,6.5,0,0,944,1,1
422162,0.6,8.0,6.1,0,0,944,1,1
422182,0.6,7.8,6.6,0,0,945,1,1
422202,0.6,7.6,6.4,0,0,945,1,1
422222,0.7,7.5,5.8,0,0,948,1,1
422242,0.7,7.5,5.9,0,0,946,1,1
422262,0.7,7.8,6.0,0,0,944,1,1
422282,0.7,7.6,6.2,0,0,947,1,1
422302,0.6,7.7,6.3,0,0,944,1,1
422322,0.6,7.7,6.1,0,0,944,1,1
422342,0.6,7.5,6.1,0,0,947,1,1
422362,0.6,7.6,6.1,0,0,945,1,1
422382,0.6,7.8,6.2,0,0,946,1,1
422402,0.6,7.6,6.1,0,0,946,1,1
422422,0.6,7.6,6.1,0,0,945,1,1
422442,0.6,7.6,6.1,0,0,944,1,1
422462,0.6,7.7,6.2,0,0,946,1,1
422482,1.0,7.7,3.8,0,0,949,1,1
422502,0.6,8.3,7.2,0,0,947,1,1
422522,0.6,7.7,6.8,0,0,943,1,1
422542,0.6,7.0,6.2,0,0,948,1,1
422562,0.6,7.5,6.3,0,0,945,1,1
422582,1.2,7.8,3.6,0,0,945,1,1
422602,0.6,7.0,5.1,0,0,946,1,1
422622,0.5,8.6,7.6,0,0,943,1,1
422642,0.6,8.1,7.0,0,0,945,1,1
422662,0.6,7.8,5.9,0,0,943,1,1
422682,0.6,7.2,5.1,0,0,944,1,1
422702,0.6,8.1,6.0,0,0,946,1,1
422722,0.5,7.7,7.1,0,0,944,1,1
422742,0.5,8.4,6.1,0,0,947,1,1
422762,0.7,8.3,5.7,0,0,946,1,1
422782,0.7,6.6,5.9,0,0,954,1,1
422802,0.7,6.9,4.7,0,0,946,1,1
422822,0.0,9.6,3.8,0,0,943,1,1
422842,0.6,8.3,7.1,0,0,947,1,1
422862,0.5,8.9,6.8,0,0,944,1,1
422882,0.6,9.6,6.8,0,0,945,1,1
422902,0.8,9.9,6.7,0,0,945,1,1
422922,0.9,9.8,6.4,0,0,942,1,1
422942,1.1,7.8,6.5,0,0,946,1,1
422962,1.2,7.5,5.9,0,0,945,1,1
422982,1.5,7.3,4.7,0,0,943,1,1
423002,1.2,7.1,3.5,0,0,946,1,1
423022,1.0,7.6,1.2,0,0,945,1,1
423042,-0.3,7.3,-3.4,0,0,946,1,1
423062,1.0,4.7,-7.6,0,0,945,1,1
423082,5.1,2.7,2.0,0,0,947,1,1
423102,8.6,2.1,8.1,0,0,946,1,1
423122,0.0,8.6,14.4,0,0,945,1,1
423142,1.6,13.9,11.8,0,0,946,1,1
423162,1.0,10.0,10.1,0,0,946,1,1
423182,0.5,5.4,5.5,0,0,942,1,1
423202,1.1,8.9,4.2,0,0,945,1,1
423222,0.3,6.8,5.3,0,0,944,1,1
423242,0.7,8.0,5.6,0,0,947,1,1
423262,1.0,7.7,5.4,0,0,944,1,1
423282,0.9,7.4,5.7,0,0,946,1,1
423302,1.1,7.4,5.4,0,0,944,1,1
423322,1.1,7.8,5.0,0,0,946,1,1
423342,1.3,7.0,4.8,0,0,946,1,1
423362,0.8,7.6,4.6,0,0,945,1,1
423382,0.9,7.1,5.2,0,0,946,1,1
423402,0.7,7.8,6.5,0,0,945,1,1
423422,0.8,8.4,7.3,0,0,944,1,1
423442,0.6,8.6,7.0,0,0,945,1,1
423462,0.6,7.6,7.3,0,0,946,1,1
423482,0.6,7.6,6.4,0,0,947,1,1
423502,0.6,6.7,5.4,0,0,947,1,1
423522,0.6,7.2,5.6,0,0,946,1,1
423542,0.5,8.0,7.4,0,0,945,1,1
423562,0.4,7.6,7.2,0,0,944,1,1
423582,0.5,8.2,6.7,0,0,946,1,1
423602,0.6,7.7,5.6,0,0,946,1,1
423622,0.7,7.0,5.2,0,0,947,1,1
423642,0.7,7.0,5.7,0,0,946,1,1
423662,0.6,7.4,6.3,0,0,943,1,1
423682,0.6,7.9,6.8,0,0,943,1,1
423702,0.6,8.0,6.7,0,0,945,1,1
423722,0.6,7.7,6.2,0,0,943,1,1
423742,0.6,7.3,6.0,0,0,947,1,1
423762,0.6,7.2,6.0,0,0,945,1,1
423782,0.6,7.4,6.2,0,0,945,1,1
423802,0.6,7.7,6.4,0,0,946,1,1
423822,0.6,7.8,6.5,0,0,947,1,1
423842,0.6,7.5,6.4,0,0,945,1,1
423862,0.6,7.6,6.1,0,0,944,1,1
423882,0.6,7.5,6.2,0,0,945,1,1
423902,0.6,7.5,6.3,0,0,945,1,1
423922,0.6,7.5,6.3,0,0,944,1,1
423942,0.6,7.5,6.4,0,0,945,1,1
423962,0.6,7.5,6.3,0,0,945,1,1
423982,0.6,7.5,6.2,0,0,945,1,1
424002,0.6,7.5,6.2,0,0,947,1,1
424022,0.6,7.6,6.3,0,0,946,1,1
424042,0.6,7.5,6.3,0,0,945,1,1
424062,0.6,7.5,6.3,0,0,945,1,1
424082,0.6,7.5,6.3,0,0,944,1,1
424102,0.6,7.5,6.3,0,0,944,1,1
424122,0.6,7.6,6.3,0,0,948,1,1
424142,0.6,7.5,6.3,0,0,945,1,1
424162,0.6,7.5,6.3,0,0,945,1,1
424182,0.6,7.5,6.4,0,0,943,1,1
424202,0.6,7.5,6.3,0,0,946,1,1
424222,0.5,5.3,6.1,0,0,944,1,1
424242,0.1,12.9,11.9,0,0,943,1,1
424262,0.6,6.9,6.7,0,0,947,1,1
424282,0.5,9.0,7.1,0,0,945,1,1
424302,0.7,7.7,5.2,0,0,945,1,1
424322,0.7,6.7,4.9,0,0,946,1,1
424342,0.6,7.6,6.8,0,0,945,1,1
424362,0.6,7.6,6.9,0,0,945,1,1
424382,0.6,7.6,6.9,0,0,945,1,1
424402,0.6,5.8,5.8,0,0,945,1,1
424422,0.6,6.7,9.7,0,0,946,1,1
424442,0.6,7.9,6.8,0,0,946,1,1
424462,0.3,8.0,5.7,0,0,945,1,1
424482,0.4,6.8,6.8,0,0,944,1,1
424502,0.6,7.9,5.5,0,0,946,1,1
424522,0.5,7.6,6.0,0,0,947,1,1
424542,0.3,5.4,17.2,0,0,945,1,1
424562,0.5,9.6,11.6,0,0,946,1,1
424582,0.5,12.3,9.6,0,0,945,1,1
424602,1.9,11.9,5.7,0,0,946,1,1
424622,1.3,6.9,6.1,0,0,946,1,1
424642,-0.0,6.2,3.0,0,0,944,1,1
424662,1.2,5.6,0.7,0,0,947,1,1
424682,1.0,7.3,0.6,0,0,945,1,1
424702,0.8,7.6,-1.2,0,0,946,1,1
424722,-0.7,7.8,-4.8,0,0,944,1,1
424742,2.3,7.2,-3.7,0,0,945,1,1
424762,-2.6,4.9,7.6,0,0,947,1,1
424782,2.2,7.8,2.7,0,0,948,1,1
424802,4.0,19.5,31.7,0,0,948,1,1
424822,2.0,10.9,7.1,0,0,946,1,1
424842,-1.5,5.4,7.7,0,0,947,1,1
424862,-0.5,7.8,2.2,0,0,947,1,1
424882,-0.2,6.5,4.5,0,0,945,1,1
424902,1.8,9.6,8.8,0,0,948,1,1
424922,1.1,7.8,6.0,0,0,945,1,1
424942,0.6,6.8,4.2,0,0,946,1,1
424962,0.8,7.5,5.1,0,0,948,1,1
424982,1.0,8.1,5.2,0,0,945,1,1
425002,1.1,8.3,6.3,0,0,944,1,1
425022,1.0,7.5,4.6,0,0,944,1,1
425042,0.9,7.2,5.0,0,0,947,1,1
425062,0.8,7.1,5.8,0,0,946,1,1
425082,0.5,8.8,4.9,0,0,944,1,1
425102,0.7,8.4,6.0,0,0,946,1,1
425122,0.8,8.0,7.3,0,0,948,1,1
425142,0.7,8.2,6.3,0,0,944,1,1
425162,0.7,7.9,6.0,0,0,947,1,1
425182,0.7,7.5,5.7,0,0,946,1,1
425202,0.6,7.7,5.8,0,0,946,1,1
425222,0.6,7.7,6.0,0,0,945,1,1
425242,0.6,7.7,6.0,0,0,946,1,1
425262,0.7,7.8,6.1,0,0,946,1,1
425282,0.7,7.9,6.0,0,0,943,1,1
425302,0.7,7.8,6.0,0,0,947,1,1
425322,0.7,7.7,5.9,0,0,947,1,1
425342,0.7,7.8,5.9,0,0,948,1,1
425362,0.6,7.8,6.0,0,0,945,1,1
425382,0.6,7.8,6.0,0,0,946,1,1
425402,0.6,7.8,6.0,0,0,945,1,1
425422,0.6,7.8,6.0,0,0,945,1,1
425442,0.7,7.8,6.0,0,0,946,1,1
425462,0.7,7.8,6.0,0,0,947,1,1
425482,0.7,7.8,6.0,0,0,944,1,1
425502,0.6,7.8,6.0,0,0,945,1,1
425522,0.6,7.8,6.0,0,0,947,1,1
425542,0.6,7.8,6.0,0,0,945,1,1
425562,0.6,7.8,6.0,0,0,948,1,1
425582,0.6,7.7,6.0,0,0,945,1,1
425602,0.6,7.8,6.0,0,0,945,1,1
425622,0.6,7.8,6.0,0,0,946,1,1
425642,0.7,7.8,6.0,0,0,945,1,1
425662,0.7,7.3,5.5,0,0,947,1,1
425682,0.6,8.0,6.0,0,0,945,1,1
425702,0.6,8.1,6.1,0,0,946,1,1
425722,0.6,7.8,6.2,0,0,945,1,1
425742,0.6,7.7,5.8,0,0,944,1,1
425762,0.6,7.6,5.9,0,0,944,1,1
425782,0.6,7.8,6.0,0,0,944,1,1
425802,0.6,7.8,6.1,0,0,946,1,1
425822,0.6,7.8,6.0,0,0,949,1,1
425842,0.7,7.7,6.0,0,0,947,1,1
425862,0.6,7.7,6.0,0,0,946,1,1
425882,0.6,7.8,6.0,0,0,946,1,1
425902,0.6,7.8,6.0,0,0,945,1,1
425922,0.6,7.7,6.0,0,0,944,1,1
425942,0.6,7.7,6.0,0,0,944,1,1
425962,0.6,7.8,6.0,0,0,945,1,1
425982,0.6,7.8,6.0,0,0,943,1,1
426002,0.7,7.8,6.0,0,0,944,1,1
426022,0.6,7.8,6.0,0,0,944,1,1
426042,0.6,7.8,6.0,0,0,944,1,1
426062,0.6,7.8,6.0,0,0,946,1,1
426082,0.6,7.8,6.0,0,0,945,1,1
426102,0.7,5.1,5.2,0,0,946,1,1
426122,0.7,7.8,4.9,0,0,943,1,1
426142,0.4,5.4,7.2,0,0,945,1,1
426162,0.6,7.4,5.5,0,0,944,1,1
426182,0.5,8.1,6.2,0,0,944,1,1
426202,0.4,7.8,5.5,0,0,943,1,1
426222,0.5,7.9,6.0,0,0,945,1,1
426242,0.5,7.7,6.0,0,0,931,1,1
426262,0.6,9.4,5.0,0,0,946,1,1
426282,0.3,10.1,6.6,0,0,944,1,1
426302,0.7,9.0,6.5,0,0,945,1,1
426322,1.0,9.0,7.5,0,0,944,1,1
426342,1.7,9.8,7.6,0,0,946,1,1
426362,1.7,8.8,6.1,0,0,946,1,1
426382,1.8,7.9,7.5,0,0,944,1,1
426402,0.2,5.4,1.9,0,0,945,1,1
426422,0.1,9.5,-1.4,0,0,943,1,1
426442,-3.2,8.5,-6.0,0,0,943,1,1
426462,0.6,3.3,2.3,0,0,945,1,1
426482,2.5,2.6,-3.3,0,0,947,1,1
426502,4.3,0.1,10.6,0,0,946,1,1
426522,1.1,10.6,9.8,0,0,945,1,1
426542,2.8,14.5,12.9,0,0,943,1,1
426562,3.2,11.5,2.5,0,0,944,1,1
426582,0.2,7.4,6.8,0,0,945,1,1
426602,0.4,6.5,3.9,0,0,946,1,1
426622,0.8,7.7,5.9,0,0,948,1,1
426642,0.8,8.2,6.6,0,0,945,1,1
426662,1.0,7.1,4.0,0,0,945,1,1
426682,1.0,7.4,4.8,0,0,947,1,1
426702,1.1,8.2,6.2,0,0,947,1,1
426722,0.8,7.0,6.8,0,0,946,1,1
426742,1.0,8.2,6.3,0,0,945,1,1
426762,1.1,8.3,4.7,0,0,948,1,1
426782,0.9,8.4,6.5,0,0,947,1,1
426802,0.9,7.6,5.9,0,0,942,1,1
426822,0.9,8.5,6.0,0,0,943,1,1
426842,0.8,8.0,5.6,0,0,943,1,1
426862,0.9,7.9,6.7,0,0,944,1,1
426882,0.8,7.9,5.9,0,0,948,1,1
426902,0.8,8.4,6.2,0,0,944,1,1
426922,0.8,7.6,5.9,0,0,946,1,1
426942,0.7,7.7,6.0,0,0,946,1,1
426962,0.7,7.8,5.9,0,0,945,1,1
426982,0.7,6.4,8.3,0,0,947,1,1
427002,0.8,8.8,4.4,0,0,945,1,1
427022,0.8,7.7,5.7,0,0,945,1,1
427042,0.7,7.5,6.5,0,0,946,1,1
427062,0.7,8.0,6.1,0,0,944,1,1
427082,0.7,7.6,5.9,0,0,944,1,1
427102,0.7,7.7,6.0,0,0,945,1,1
427122,0.7,7.8,6.0,0,0,944,1,1
427142,0.7,7.7,5.9,0,0,945,1,1
427162,0.6,6.2,6.2,0,0,945,1,1
427182,0.7,7.7,5.5,0,0,945,1,1
427202,0.7,8.6,6.1,0,0,945,1,1
427222,0.6,8.0,7.0,0,0,945,1,1
427242,0.6,8.1,6.3,0,0,945,1,1
427262,0.6,7.9,6.0,0,0,944,1,1
427282,0.7,7.3,6.0,0,0,943,1,1
427302,0.7,7.2,5.6,0,0,945,1,1
427322,0.7,7.7,5.7,0,0,944,1,1
427342,0.7,7.9,6.5,0,0,946,1,1
427362,0.7,7.8,6.4,0,0,945,1,1
427382,0.7,7.5,6.0,0,0,948,1,1
427402,0.7,7.8,5.8,0,0,946,1,1
427422,0.6,7.8,6.1,0,0,944,1,1
427442,0.6,7.7,6.1,0,0,945,1,1
427462,0.6,7.8,6.1,0,0,944,1,1
427482,0.7,7.7,6.1,0,0,944,1,1
427502,0.7,7.6,5.9,0,0,947,1,1
427522,0.7,7.5,6.0,0,0,945,1,1
427542,0.7,7.8,6.3,0,0,948,1,1
427562,0.7,8.0,6.2,0,0,945,1,1
427582,0.7,7.7,6.2,0,0,943,1,1
427602,0.7,7.6,5.9,0,0,944,1,1
427622,0.7,7.5,5.8,0,0,945,1,1
427642,0.7,7.7,6.1,0,0,946,1,1
427662,0.7,7.8,6.2,0,0,947,1,1
427682,0.7,7.7,6.1,0,0,945,1,1
427702,0.7,7.6,6.0,0,0,945,1,1
427722,0.7,7.5,5.9,0,0,944,1,1
427742,0.7,7.5,6.1,0,0,946,1,1
427762,0.7,8.1,6.2,0,0,945,1,1
427782,0.6,8.1,6.4,0,0,944,1,1
427802,0.6,7.6,6.4,0,0,946,1,1
427822,0.7,5.7,4.4,0,0,945,1,1
427842,0.5,7.1,6.9,0,0,942,1,1
427862,0.4,5.9,6.0,0,0,945,1,1
427882,0.5,7.4,8.4,0,0,946,1,1
427902,0.6,7.8,6.5,0,0,944,1,1
427922,0.8,6.6,9.7,0,0,947,1,1
427942,0.9,10.3,9.6,0,0,944,1,1
427962,1.4,14.8,12.2,0,0,942,1,1
427982,1.6,4.9,8.1,0,0,946,1,1
428002,1.1,5.2,3.6,0,0,944,1,1
428022,-0.6,6.2,1.0,0,0,946,1,1
428042,0.2,7.6,2.1,0,0,944,1,1
428062,-1.3,7.2,-3.4,0,0,944,1,1
428082,-2.9,5.4,-1.2,0,0,945,1,1
428102,-1.6,-6.6,5.0,0,0,946,1,1
428122,4.3,-4.3,0.9,0,0,944,1,1
428142,-1.2,10.5,14.4,0,0,945,1,1
428162,2.6,17.9,11.4,0,0,944,1,1
428182,-3.3,11.5,3.4,0,0,943,1,1
428202,-1.2,1.9,5.0,0,0,945,1,1
428222,-0.5,6.5,3.8,0,0,945,1,1
428242,-0.6,8.1,4.6,0,0,944,1,1
428262,-0.2,7.5,4.9,0,0,944,1,1
428282,2.6,11.0,11.4,0,0,946,1,1
428302,1.1,3.7,1.2,0,0,946,1,1
428322,1.6,7.4,6.3,0,0,946,1,1
428342,0.3,8.4,8.5,0,0,946,1,1
428362,0.6,6.4,5.5,0,0,945,1,1
428382,0.6,6.3,5.9,0,0,943,1,1
428402,0.6,6.4,6.8,0,0,944,1,1
428422,0.6,7.0,5.4,0,0,947,1,1
428442,0.6,7.4,5.5,0,0,943,1,1
428462,0.5,8.5,7.2,0,0,949,1,1
428482,0.5,8.2,6.8,0,0,946,1,1
428502,0.6,7.4,5.7,0,0,945,1,1
428522,0.6,7.6,5.9,0,0,946,1,1
428542,0.6,7.6,6.0,0,0,948,1,1
428562,0.5,7.6,6.2,0,0,945,1,1
428582,0.5,7.8,6.5,0,0,947,1,1
428602,0.6,7.6,6.4,0,0,945,1,1
428622,0.6,7.4,6.1,0,0,944,1,1
428642,0.6,7.3,6.1,0,0,942,1,1
428662,0.6,7.6,6.5,0,0,945,1,1
428682,0.5,7.7,6.4,0,0,945,1,1
428702,0.6,7.5,6.2,0,0,945,1,1
428722,0.6,7.5,6.1,0,0,948,1,1
428742,0.5,7.6,6.2,0,0,945,1,1
428762,0.6,7.6,6.2,0,0,946,1,1
428782,0.6,7.6,6.2,0,0,944,1,1
428802,0.6,7.6,6.2,0,0,946,1,1
428822,0.6,7.6,6.2,0,0,946,1,1
428842,0.6,7.6,6.2,0,0,947,1,1
428862,0.6,7.6,6.2,0,0,947,1,1
428882,0.5,7.6,6.2,0,0,945,1,1
428902,0.5,7.6,6.2,0,0,946,1,1
428922,0.5,7.6,6.2,0,0,942,1,1
428942,0.6,7.6,6.2,0,0,944,1,1
428962,0.6,7.6,6.2,0,0,945,1,1
428982,0.6,7.6,6.2,0,0,948,1,1
429002,0.6,7.6,6.2,0,0,946,1,1
429022,0.6,7.6,6.2,0,0,946,1,1
429042,0.5,7.6,6.2,0,0,945,1,1
429062,0.6,7.6,6.2,0,0,947,1,1
429082,0.6,7.6,6.2,0,0,943,1,1
429102,0.5,7.6,6.2,0,0,946,1,1
429122,0.6,7.6,6.2,0,0,947,1,1
429142,0.6,7.6,6.2,0,0,945,1,1
429162,0.6,7.6,6.2,0,0,943,1,1
429182,0.6,6.9,6.1,0,0,946,1,1
429202,0.5,7.6,5.9,0,0,946,1,1
429222,0.5,8.7,7.2,0,0,945,1,1
429242,0.5,7.8,6.2,0,0,948,1,1
429262,0.5,7.8,6.2,0,0,946,1,1
429282,0.5,7.4,6.3,0,0,946,1,1
429302,0.4,6.7,7.0,0,0,946,1,1
429322,0.5,7.4,6.6,0,0,946,1,1
429342,0.6,6.9,5.5,0,0,945,1,1
429362,0.6,6.6,8.1,0,0,947,1,1
429382,0.5,7.3,6.3,0,0,947,1,1
429402,0.5,7.5,6.4,0,0,945,1,1
429422,0.5,7.5,7.1,0,0,943,1,1
429442,0.4,7.4,6.7,0,0,945,1,1
429462,0.5,7.4,6.6,0,0,945,1,1
429482,0.5,7.5,6.6,0,0,946,1,1
429502,0.5,7.5,6.7,0,0,949,1,1
429522,0.5,7.3,6.8,0,0,946,1,1
429542,0.5,7.4,6.7,0,0,946,1,1
429562,0.6,7.7,6.1,0,0,946,1,1
429582,0.6,7.7,7.1,0,0,945,1,1
429602,0.6,8.0,7.5,0,0,946,1,1
429622,0.7,8.7,8.2,0,0,944,1,1
429642,0.8,9.4,8.8,0,0,945,1,1
429662,1.9,12.0,16.9,0,0,946,1,1
429682,1.2,7.8,6.2,0,0,946,1,1
429702,1.8,6.7,6.3,0,0,943,1,1
429722,-2.3,3.9,-1.4,0,0,944,1,1
429742,-0.7,8.4,-1.7,0,0,944,1,1
429762,-1.6,7.4,-2.5,0,0,947,1,1
429782,-0.4,4.4,0.7,0,0,947,1,1
429802,0.9,-0.6,-4.9,0,0,945,1,1
429822,11.3,12.8,23.1,0,0,944,1,1
429842,-0.7,11.6,11.4,0,0,945,1,1
429862,1.8,12.6,6.3,0,0,945,1,1
429882,0.8,7.4,6.9,0,0,947,1,1
429902,0.8,5.7,3.8,0,0,946,1,1
429922,1.1,5.9,5.2,0,0,946,1,1
429942,1.8,8.4,5.0,0,0,946,1,1
429962,0.5,9.2,6.5,0,0,944,1,1
429982,-0.2,9.5,3.9,0,0,945,1,1
430002,1.3,8.2,5.8,0,0,944,1,1
430022,0.6,6.7,4.5,0,0,945,1,1
430042,0.7,7.4,6.6,0,0,948,1,1
430062,1.4,8.7,4.1,0,0,947,1,1
430082,1.5,6.7,6.4,0,0,944,1,1
430102,0.9,9.8,8.7,0,0,946,1,1
430122,0.8,8.5,6.0,0,0,945,1,1
430142,0.8,7.7,6.4,0,0,946,1,1
430162,0.7,8.0,6.6,0,0,946,1,1
430182,0.8,7.5,5.1,0,0,944,1,1
430202,0.8,7.4,5.8,0,0,946,1,1
430222,0.7,7.9,5.9,0,0,943,1,1
430242,0.7,7.9,6.0,0,0,944,1,1
430262,0.7,7.8,6.2,0,0,944,1,1
430282,0.7,7.8,6.0,0,0,945,1,1
430302,0.7,7.7,5.9,0,0,934,1,1
430322,0.7,7.7,5.9,0,0,946,1,1
430342,0.7,7.8,6.0,0,0,945,1,1
430362,0.7,7.8,6.0,0,0,945,1,1
430382,0.7,7.8,6.0,0,0,945,1,1
430402,0.6,6.8,6.2,0,0,944,1,1
430422,0.7,7.5,5.7,0,0,946,1,1
430442,0.7,8.0,5.9,0,0,944,1,1
430462,0.6,7.7,6.7,0,0,943,1,1
430482,0.7,8.7,5.1,0,0,944,1,1
430502,0.7,7.8,6.9,0,0,944,1,1
430522,0.3,5.4,5.9,0,0,943,1,1
430542,0.6,7.4,6.4,0,0,944,1,1
430562,0.6,8.7,6.2,0,0,946,1,1
430582,0.6,7.8,6.2,0,0,948,1,1
430602,0.6,7.6,6.3,0,0,946,1,1
430622,0.7,7.8,6.0,0,0,946,1,1
430642,0.7,7.3,5.6,0,0,946,1,1
430662,0.7,8.0,6.0,0,0,945,1,1
430682,0.7,7.8,6.1,0,0,944,1,1
430702,0.6,7.9,6.2,0,0,944,1,1
430722,0.7,7.7,5.8,0,0,944,1,1
430742,0.7,7.5,5.8,0,0,943,1,1
430762,1.1,6.5,8.0,0,0,944,1,1
430782,0.6,9.2,6.0,0,0,946,1,1
430802,0.4,7.9,5.5,0,0,943,1,1
430822,0.8,8.9,6.4,0,0,948,1,1
430842,0.8,7.4,4.6,0,0,948,1,1
430862,0.9,7.2,4.2,0,0,946,1,1
430882,0.9,7.0,4.1,0,0,945,1,1
430902,0.8,7.6,5.6,0,0,945,1,1
430922,0.8,8.3,6.1,0,0,946,1,1
430942,1.0,8.4,6.4,0,0,944,1,1
430962,0.6,8.4,6.0,0,0,945,1,1
430982,0.8,7.7,6.1,0,0,945,1,1
431002,0.7,7.6,5.6,0,0,948,1,1
431022,-0.1,5.1,8.2,0,0,943,1,1
431042,0.2,6.1,6.4,0,0,944,1,1
431062,0.5,7.9,5.8,0,0,944,1,1
431082,0.6,7.3,6.1,0,0,944,1,1
431102,0.6,7.6,5.9,0,0,946,1,1
431122,0.6,7.9,6.7,0,0,947,1,1
431142,0.6,7.5,6.0,0,0,948,1,1
431162,0.5,7.6,6.5,0,0,948,1,1
431182,0.5,7.7,6.5,0,0,945,1,1
431202,-0.3,12.9,6.1,0,0,944,1,1
431222,0.4,9.3,7.2,0,0,944,1,1
431242,0.3,8.2,6.8,0,0,945,1,1
431262,0.2,9.7,7.0,0,0,947,1,1
431282,2.1,10.0,6.7,0,0,943,1,1
431302,1.0,8.3,5.7,0,0,946,1,1
431322,1.1,8.0,4.3,0,0,945,1,1
431342,1.8,7.5,5.9,0,0,945,1,1
431362,0.5,6.9,-0.7,0,0,946,1,1
431382,-1.4,9.0,-5.8,0,0,946,1,1
431402,-0.1,5.0,-7.4,0,0,943,1,1
431422,1.4,2.9,-5.6,0,0,946,1,1
431442,13.2,5.9,22.1,0,0,944,1,1
431462,0.6,12.7,13.8,0,0,946,1,1
431482,1.6,13.5,12.2,0,0,946,1,1
431502,5.5,4.5,14.2,0,0,945,1,1
431522,0.3,4.7,4.7,0,0,946,1,1
431542,-1.2,6.3,2.7,0,0,944,1,1
431562,1.4,7.8,6.7,0,0,944,1,1
431582,-0.8,6.6,4.1,0,0,941,1,1
431602,-0.9,5.8,1.4,0,0,948,1,1
431622,-1.3,5.0,-3.1,0,0,945,1,1
431642,2.2,7.2,4.0,0,0,947,1,1
431662,1.7,15.0,8.3,0,0,945,1,1
431682,1.6,6.5,7.2,0,0,946,1,1
431702,0.9,8.2,0.3,0,0,947,1,1
431722,0.8,8.7,9.8,0,0,945,1,1
431742,0.6,9.4,5.0,0,0,944,1,1
431762,0.6,8.3,7.9,0,0,946,1,1
431782,0.7,9.2,7.4,0,0,945,1,1
431802,0.7,7.7,4.9,0,0,945,1,1
431822,0.8,7.0,5.9,0,0,943,1,1
431842,0.8,7.4,5.6,0,0,944,1,1
431862,0.7,7.8,5.5,0,0,944,1,1
431882,0.7,8.2,6.3,0,0,944,1,1
431902,0.7,8.0,4.9,0,0,945,1,1
431922,0.7,7.9,6.0,0,0,947,1,1
431942,0.7,7.8,5.9,0,0,948,1,1
431962,0.7,7.6,5.8,0,0,945,1,1
431982,0.7,7.7,5.9,0,0,948,1,1
432002,0.7,7.9,6.0,0,0,946,1,1
432022,0.7,7.9,6.0,0,0,946,1,1
432042,0.7,7.8,5.9,0,0,945,1,1
432062,0.7,7.7,5.8,0,0,944,1,1
432082,0.7,7.8,5.9,0,0,945,1,1
432102,0.7,7.9,6.0,0,0,944,1,1
432122,0.7,7.8,5.9,0,0,946,1,1
432142,0.7,7.6,5.8,0,0,945,1,1
432162,0.7,7.8,5.7,0,0,947,1,1
432182,0.7,7.8,6.0,0,0,947,1,1
432202,0.7,8.0,6.2,0,0,945,1,1
432222,0.7,8.1,6.1,0,0,944,1,1
432242,0.6,7.7,6.2,0,0,947,1,1
432262,0.7,7.6,5.8,0,0,946,1,1
432282,0.7,7.6,5.7,0,0,944,1,1
432302,0.7,7.8,5.9,0,0,945,1,1
432322,0.7,7.8,7.3,0,0,944,1,1
432342,0.7,7.9,6.0,0,0,949,1,1
432362,0.7,7.8,5.9,0,0,944,1,1
432382,0.7,7.7,5.9,0,0,943,1,1
432402,0.7,7.8,5.9,0,0,944,1,1
432422,0.7,7.9,6.0,0,0,944,1,1
432442,0.7,7.9,6.0,0,0,948,1,1
432462,0.7,7.8,6.0,0,0,945,1,1
432482,0.7,7.8,5.9,0,0,947,1,1
432502,0.7,7.8,5.9,0,0,944,1,1
432522,0.7,7.8,5.9,0,0,944,1,1
432542,0.7,7.8,6.0,0,0,946,1,1
432562,0.7,7.8,5.9,0,0,945,1,1
432582,0.7,7.8,6.0,0,0,946,1,1
432602,0.7,8.2,5.5,0,0,946,1,1
432622,0.6,7.9,6.2,0,0,947,1,1
432642,0.7,7.8,6.4,0,0,943,1,1
432662,0.7,7.4,3.5,0,0,945,1,1
432682,0.8,6.4,5.3,0,0,945,1,1
432702,0.5,8.9,7.2,0,0,945,1,1
432722,0.5,8.4,7.7,0,0,946,1,1
432742,0.7,6.5,5.6,0,0,946,1,1
432762,-0.4,12.1,1.3,0,0,946,1,1
432782,0.5,8.4,6.3,0,0,946,1,1
432802,0.5,8.8,5.9,0,0,948,1,1
432822,0.6,8.5,7.0,0,0,947,1,1
432842,0.2,8.9,5.8,0,0,948,1,1
432862,1.6,11.8,9.3,0,0,946,1,1
432882,1.3,9.7,8.1,0,0,942,1,1
432902,1.2,5.9,6.6,0,0,943,1,1
432922,1.4,6.3,4.6,0,0,945,1,1
432942,-1.2,6.0,-1.5,0,0,944,1,1
432962,-0.7,8.2,-4.1,0,0,945,1,1
432982,1.1,4.8,-4.1,0,0,947,1,1
433002,1.5,2.3,5.2,0,0,945,1,1
433022,1.4,10.6,11.2,0,0,944,1,1
433042,0.1,11.4,12.1,0,0,945,1,1
433062,3.3,17.2,13.4,0,0,946,1,1
433082,0.3,5.4,8.7,0,0,946,1,1
433102,1.5,8.1,6.7,0,0,946,1,1
433122,-0.4,6.1,2.3,0,0,945,1,1
433142,0.0,6.2,2.2,0,0,944,1,1
433162,0.1,7.9,4.2,0,0,944,1,1
433182,1.9,6.8,4.5,0,0,945,1,1
433202,4.0,15.2,6.9,0,0,946,1,1
433222,1.2,8.5,5.7,0,0,943,1,1
433242,1.2,5.8,6.0,0,0,943,1,1
433262,1.0,9.5,7.1,0,0,946,1,1
433282,0.6,8.0,6.4,0,0,948,1,1
433302,0.6,8.7,6.9,0,0,945,1,1
433322,0.7,8.4,7.2,0,0,945,1,1
433342,0.7,7.9,6.2,0,0,945,1,1
433362,0.8,7.4,5.1,0,0,946,1,1
433382,0.8,7.5,5.4,0,0,946,1,1
433402,0.7,7.9,5.6,0,0,947,1,1
433422,0.7,8.1,6.3,0,0,944,1,1
433442,0.7,8.1,6.3,0,0,942,1,1
433462,0.7,8.0,6.0,0,0,946,1,1
433482,0.7,7.7,5.7,0,0,946,1,1
433502,0.7,7.5,5.5,0,0,947,1,1
433522,0.7,7.7,5.5,0,0,948,1,1
433542,0.7,8.0,5.8,0,0,945,1,1
433562,0.7,8.0,6.2,0,0,946,1,1
433582,0.7,7.9,6.1,0,0,945,1,1
433602,0.7,7.8,5.9,0,0,945,1,1
433622,0.7,7.7,5.8,0,0,945,1,1
433642,0.6,7.8,5.8,0,0,944,1,1
433662,0.7,8.1,6.1,0,0,945,1,1
433682,0.7,7.7,6.0,0,0,948,1,1
433702,0.7,7.7,5.8,0,0,946,1,1
433722,0.7,7.7,5.8,0,0,944,1,1
433742,0.7,7.8,5.9,0,0,945,1,1
433762,0.7,7.8,6.0,0,0,946,1,1
433782,0.7,7.9,5.9,0,0,945,1,1
433802,0.7,7.8,5.9,0,0,948,1,1
433822,0.7,7.8,5.9,0,0,946,1,1
433842,0.7,7.8,5.9,0,0,945,1,1
433862,0.7,7.9,5.9,0,0,946,1,1
433882,0.7,7.8,5.9,0,0,945,1,1
433902,0.7,7.8,5.9,0,0,944,1,1
433922,0.7,7.8,5.9,0,0,944,1,1
433942,0.7,7.9,5.9,0,0,947,1,1
433962,0.7,7.8,5.9,0,0,945,1,1
433982,0.7,7.8,5.9,0,0,945,1,1
434002,0.7,7.8,5.9,0,0,944,1,1
434022,0.7,7.8,5.9,0,0,945,1,1
434042,0.7,7.8,5.9,0,0,944,1,1
434062,0.8,7.1,6.2,0,0,947,1,1
434082,0.7,6.9,5.7,0,0,945,1,1
434102,0.6,8.3,6.1,0,0,945,1,1
434122,0.5,8.9,6.7,0,0,945,1,1
434142,0.6,7.4,5.4,0,0,946,1,1
434162,0.5,8.1,6.0,0,0,946,1,1
434182,0.6,7.9,5.8,0,0,946,1,1
434202,0.6,7.9,6.1,0,0,943,1,1
434222,0.6,7.9,6.1,0,0,945,1,1
434242,0.5,8.6,7.1,0,0,945,1,1
434262,0.8,8.7,8.1,0,0,944,1,1
434282,0.7,8.6,6.3,0,0,946,1,1
434302,1.3,9.1,7.4,0,0,944,1,1
434322,0.7,7.9,6.3,0,0,946,1,1
434342,0.9,8.4,6.2,0,0,946,1,1
434362,1.1,8.7,5.8,0,0,944,1,1
434382,1.2,7.8,3.2,0,0,947,1,1
434402,0.6,7.3,2.6,0,0,945,1,1
434422,0.3,7.7,-2.3,0,0,946,1,1
434442,0.3,7.3,-2.1,0,0,947,1,1
434462,1.9,5.6,-1.7,0,0,945,1,1
434482,1.5,15.6,18.9,0,0,947,1,1
434502,1.9,11.7,13.1,0,0,945,1,1
434522,1.5,9.8,10.7,0,0,943,1,1
434542,1.2,9.7,6.4,0,0,943,1,1
434562,-0.3,6.3,6.5,0,0,944,1,1
434582,-0.0,7.7,5.7,0,0,944,1,1
434602,0.1,8.2,6.6,0,0,946,1,1
434622,1.4,11.1,5.4,0,0,943,1,1
434642,0.6,8.1,5.1,0,0,945,1,1
434662,0.8,8.1,5.5,0,0,944,1,1
434682,0.9,8.3,5.0,0,0,946,1,1
434702,1.0,7.7,5.2,0,0,946,1,1
434722,1.1,7.4,5.6,0,0,945,1,1
434742,0.9,7.9,4.1,0,0,943,1,1
434762,1.2,5.9,5.7,0,0,946,1,1
434782,0.6,8.9,5.5,0,0,944,1,1
434802,0.6,8.2,8.2,0,0,944,1,1
434822,0.5,9.0,7.2,0,0,944,1,1
434842,0.6,8.3,6.4,0,0,944,1,1
434862,0.7,7.4,5.8,0,0,948,1,1
434882,0.8,7.4,5.4,0,0,946,1,1
434902,0.7,7.3,5.6,0,0,945,1,1
434922,0.7,7.6,5.9,0,0,944,1,1
434942,0.6,8.1,6.0,0,0,944,1,1
434962,0.6,8.1,6.4,0,0,944,1,1
434982,0.6,7.8,6.4,0,0,946,1,1
435002,0.7,7.6,5.8,0,0,947,1,1
435022,0.7,7.6,5.6,0,0,945,1,1
435042,0.7,7.8,5.9,0,0,945,1,1
435062,0.7,7.7,6.2,0,0,943,1,1
435082,0.7,7.9,6.1,0,0,945,1,1
435102,0.7,7.9,6.0,0,0,944,1,1
435122,0.7,7.7,6.0,0,0,944,1,1
435142,0.7,7.7,5.9,0,0,948,1,1
435162,0.7,7.8,6.0,0,0,945,1,1
435182,0.7,7.9,6.0,0,0,945,1,1
435202,0.7,7.8,6.0,0,0,946,1,1
435222,0.7,7.7,5.9,0,0,946,1,1
435242,0.7,7.7,6.0,0,0,945,1,1
435262,0.7,7.8,6.0,0,0,945,1,1
435282,0.7,7.8,6.0,0,0,944,1,1
435302,0.7,7.8,6.0,0,0,944,1,1
435322,0.7,7.8,6.0,0,0,943,1,1
435342,0.7,7.7,6.0,0,0,945,1,1
435362,0.7,7.8,6.0,0,0,944,1,1
435382,0.7,7.8,6.0,0,0,946,1,1
435402,0.7,7.8,6.0,0,0,949,1,1
435422,0.7,7.7,6.0,0,0,946,1,1
435442,0.7,7.7,6.0,0,0,945,1,1
435462,0.7,7.2,5.8,0,0,945,1,1
435482,0.6,7.5,5.6,0,0,945,1,1
435502,0.6,7.7,6.0,0,0,945,1,1
435522,0.5,8.7,6.4,0,0,946,1,1
435542,0.6,8.1,6.2,0,0,947,1,1
435562,0.6,7.7,6.6,0,0,945,1,1
435582,0.6,7.5,6.1,0,0,946,1,1
435602,0.6,7.6,6.1,0,0,944,1,1
435622,0.7,7.7,5.8,0,0,944,1,1
435642,0.7,6.7,4.7,0,0,946,1,1
435662,0.7,8.1,6.4,0,0,946,1,1
435682,0.5,8.0,6.5,0,0,947,1,1
435702,0.5,7.4,6.6,0,0,946,1,1
435722,0.4,8.1,6.7,0,0,944,1,1
435742,0.4,7.7,6.6,0,0,948,1,1
435762,0.4,7.5,6.5,0,0,946,1,1
435782,0.4,7.8,6.9,0,0,945,1,1
435802,0.4,8.7,8.5,0,0,945,1,1
435822,0.8,9.1,9.7,0,0,946,1,1
435842,1.4,11.1,8.0,0,0,948,1,1
435862,1.1,7.7,6.0,0,0,942,1,1
435882,0.5,6.9,4.9,0,0,944,1,1
435902,0.5,6.6,3.9,0,0,946,1,1
435922,1.3,7.5,2.2,0,0,948,1,1
435942,1.1,7.0,0.5,0,0,945,1,1
435962,0.1,6.0,-2.3,0,0,944,1,1
435982,1.0,5.1,2.3,0,0,945,1,1
436002,5.6,8.9,12.5,0,0,946,1,1
436022,1.1,10.9,8.1,0,0,944,1,1
436042,1.8,8.5,11.4,0,0,945,1,1
436062,4.0,11.3,4.4,0,0,946,1,1
436082,-0.1,6.6,4.4,0,0,947,1,1
436102,0.4,8.0,3.5,0,0,945,1,1
436122,0.8,8.2,6.5,0,0,943,1,1
436142,1.4,8.2,6.1,0,0,944,1,1
436162,1.3,8.7,8.5,0,0,945,1,1
436182,0.9,6.4,4.6,0,0,946,1,1
436202,1.2,7.6,5.6,0,0,945,1,1
436222,0.9,8.6,5.3,0,0,947,1,1
436242,0.8,8.7,7.9,0,0,944,1,1
436262,0.7,8.0,6.7,0,0,945,1,1
436282,0.7,8.2,6.6,0,0,946,1,1
436302,0.7,7.7,5.4,0,0,945,1,1
436322,0.7,7.8,5.3,0,0,945,1,1
436342,0.8,8.0,5.9,0,0,944,1,1
436362,0.8,7.7,6.2,0,0,945,1,1
436382,0.8,7.7,6.0,0,0,943,1,1
436402,0.7,8.1,6.1,0,0,947,1,1
436422,0.7,7.8,5.9,0,0,958,1,1
436442,0.7,7.7,5.8,0,0,945,1,1
436462,0.7,7.9,5.9,0,0,947,1,1
436482,0.7,7.9,5.9,0,0,944,1,1
436502,0.7,7.8,5.9,0,0,945,1,1
436522,0.8,7.9,5.9,0,0,946,1,1
436542,0.7,7.8,5.9,0,0,945,1,1
436562,0.7,7.7,5.8,0,0,945,1,1
436582,0.7,7.9,5.9,0,0,946,1,1
436602,0.7,7.8,5.9,0,0,945,1,1
436622,0.7,7.8,5.9,0,0,945,1,1
436642,0.7,7.9,5.9,0,0,943,1,1
436662,0.7,7.8,5.9,0,0,946,1,1
436682,0.7,7.8,5.9,0,0,945,1,1
436702,0.7,7.9,5.9,0,0,945,1,1
436722,0.7,7.8,5.9,0,0,948,1,1
436742,0.8,7.8,5.9,0,0,946,1,1
436762,0.7,7.8,5.9,0,0,944,1,1
436782,0.7,7.8,5.9,0,0,944,1,1
436802,0.7,7.8,5.9,0,0,945,1,1
436822,0.7,7.8,5.9,0,0,943,1,1
436842,0.8,7.8,5.9,0,0,947,1,1
436862,0.7,7.8,5.9,0,0,948,1,1
436882,0.7,7.8,5.9,0,0,945,1,1
436902,0.7,7.8,5.9,0,0,943,1,1
436922,0.7,7.8,5.9,0,0,945,1,1
436942,0.7,7.8,5.9,0,0,947,1,1
436962,0.7,7.8,5.9,0,0,944,1,1
436982,0.7,7.8,5.9,0,0,950,1,1
437002,0.7,7.8,5.9,0,0,946,1,1
437022,0.7,7.8,5.9,0,0,944,1,1
437042,0.7,7.8,5.9,0,0,945,1,1
437062,0.7,7.8,5.9,0,0,948,1,1
437082,0.7,7.8,5.9,0,0,946,1,1
437102,0.7,7.8,5.9,0,0,946,1,1
437122,0.7,7.8,5.9,0,0,945,1,1
437142,0.7,7.8,5.9,0,0,945,1,1
437162,0.7,7.1,5.1,0,0,946,1,1
437182,0.8,7.3,5.3,0,0,942,1,1
437202,0.5,7.2,6.3,0,0,944,1,1
437222,0.4,7.5,7.1,0,0,945,1,1
437242,0.6,7.3,5.1,0,0,947,1,1
437262,0.5,7.6,7.4,0,0,946,1,1
437282,0.8,8.4,7.5,0,0,946,1,1
437302,0.0,10.2,7.8,0,0,946,1,1
437322,0.6,8.8,5.9,0,0,945,1,1
437342,1.4,9.7,6.4,0,0,945,1,1
437362,1.0,7.8,5.8,0,0,945,1,1
437382,1.0,6.9,5.3,0,0,945,1,1
437402,1.6,8.8,3.9,0,0,946,1,1
437422,1.5,7.7,1.3,0,0,945,1,1
437442,0.6,5.7,-2.2,0,0,942,1,1
437462,0.8,5.0,-2.2,0,0,943,1,1
437482,1.4,3.8,2.2,0,0,944,1,1
437502,1.0,4.1,7.5,0,0,945,1,1
437522,0.6,9.9,9.2,0,0,945,1,1
437542,-0.7,12.0,9.2,0,0,945,1,1
437562,0.1,6.9,8.2,0,0,945,1,1
437582,0.6,8.6,8.1,0,0,946,1,1
437602,0.1,7.0,6.0,0,0,943,1,1
437622,0.4,7.2,6.2,0,0,948,1,1
437642,1.0,6.8,5.3,0,0,948,1,1
437662,0.9,6.6,6.6,0,0,945,1,1
437682,0.6,7.3,6.2,0,0,945,1,1
437702,0.9,7.5,6.0,0,0,944,1,1
437722,0.9,8.3,6.3,0,0,947,1,1
437742,0.8,7.5,6.1,0,0,946,1,1
437762,0.8,7.9,6.4,0,0,946,1,1
437782,0.7,7.8,6.3,0,0,945,1,1
437802,0.6,7.4,5.7,0,0,946,1,1
437822,0.7,7.8,6.7,0,0,948,1,1
437842,0.6,8.2,6.8,0,0,944,1,1
437862,0.7,7.8,6.4,0,0,945,1,1
437882,0.7,7.6,6.4,0,0,947,1,1
437902,0.7,7.7,5.8,0,0,946,1,1
437922,0.7,7.4,5.8,0,0,945,1,1
437942,0.7,7.4,6.1,0,0,945,1,1
437962,0.6,7.7,6.5,0,0,942,1,1
437982,0.6,7.7,6.3,0,0,946,1,1
438002,0.6,7.6,6.1,0,0,944,1,1
438022,0.7,7.6,6.1,0,0,945,1,1
438042,0.7,7.5,6.1,0,0,948,1,1
438062,0.7,7.6,6.2,0,0,946,1,1
438082,0.7,7.8,6.3,0,0,945,1,1
438102,0.7,7.6,6.1,0,0,943,1,1
438122,0.7,7.5,6.1,0,0,946,1,1
438142,0.6,7.7,6.2,0,0,945,1,1
438162,0.6,7.7,6.2,0,0,941,1,1
438182,0.6,7.6,6.2,0,0,945,1,1
438202,0.7,7.7,6.2,0,0,946,1,1
438222,0.7,7.6,6.1,0,0,940,1,1
438242,0.7,7.6,6.1,0,0,943,1,1
438262,0.7,7.7,6.2,0,0,945,1,1
438282,0.6,7.6,6.2,0,0,946,1,1
438302,0.6,7.6,6.2,0,0,946,1,1
438322,0.6,7.6,6.2,0,0,945,1,1
438342,0.6,7.6,6.2,0,0,946,1,1
438362,0.7,7.6,6.2,0,0,944,1,1
438382,0.7,7.7,6.2,0,0,946,1,1
438402,0.7,7.6,6.2,0,0,945,1,1
438422,0.7,7.6,6.2,0,0,945,1,1
438442,0.7,7.7,6.2,0,0,944,1,1
438462,0.7,7.6,6.2,0,0,948,1,1
438482,0.6,7.6,6.0,0,0,944,1,1
438502,0.6,7.0,5.0,0,0,948,1,1
438522,0.6,7.8,6.9,0,0,944,1,1
438542,0.6,7.2,6.6,0,0,945,1,1
438562,0.5,7.1,6.2,0,0,947,1,1
438582,0.5,8.1,5.3,0,0,945,1,1
438602,0.5,7.7,7.4,0,0,943,1,1
438622,0.4,8.5,6.5,0,0,947,1,1
438642,0.5,8.6,7.3,0,0,945,1,1
438662,0.7,8.8,7.5,0,0,945,1,1
438682,0.5,8.1,6.8,0,0,945,1,1
438702,1.4,8.8,6.7,0,0,945,1,1
438722,1.2,7.8,6.3,0,0,945,1,1
438742,1.8,8.8,7.3,0,0,944,1,1
438762,2.0,8.5,7.4,0,0,943,1,1
438782,1.3,6.0,3.7,0,0,946,1,1
438802,-0.3,7.6,0.3,0,0,946,1,1
438822,-2.4,7.0,-7.3,0,0,946,1,1
438842,0.6,4.4,-0.5,0,0,947,1,1
438862,1.4,3.2,7.8,0,0,945,1,1
438882,5.0,11.1,11.8,0,0,946,1,1
438902,-0.3,14.8,12.8,0,0,948,1,1
438922,1.7,11.6,8.7,0,0,946,1,1
438942,0.2,6.3,4.3,0,0,946,1,1
438962,0.8,5.9,6.0,0,0,945,1,1
438982,1.1,9.0,5.4,0,0,944,1,1
439002,1.6,9.0,5.1,0,0,943,1,1
439022,1.5,7.4,5.5,0,0,946,1,1
439042,0.4,6.2,3.6,0,0,943,1,1
439062,1.2,7.2,5.4,0,0,945,1,1
439082,1.7,9.4,6.9,0,0,947,1,1
439102,1.2,8.1,4.6,0,0,946,1,1
439122,1.1,7.1,4.0,0,0,945,1,1
439142,3.1,8.2,4.1,0,0,946,1,1
439162,1.1,8.4,4.7,0,0,944,1,1
439182,1.4,7.3,4.8,0,0,944,1,1
439202,0.5,7.9,5.8,0,0,945,1,1
439222,0.9,8.3,6.9,0,0,946,1,1
439242,0.9,8.2,6.7,0,0,944,1,1
439262,0.8,8.5,7.0,0,0,943,1,1
439282,0.7,8.3,6.3,0,0,945,1,1
439302,0.7,7.7,6.1,0,0,944,1,1
439322,0.8,7.2,5.8,0,0,945,1,1
439342,0.8,7.6,5.6,0,0,948,1,1
439362,0.8,7.9,5.6,0,0,946,1,1
439382,0.8,7.9,6.1,0,0,946,1,1
439402,0.8,7.9,6.3,0,0,948,1,1
439422,0.8,7.7,6.0,0,0,947,1,1
439442,0.8,7.7,5.9,0,0,945,1,1
439462,0.8,7.6,5.9,0,0,945,1,1
439482,0.7,7.8,6.0,0,0,946,1,1
439502,0.7,7.9,6.0,0,0,945,1,1
439522,0.8,7.8,6.0,0,0,946,1,1
439542,0.8,7.7,5.9,0,0,944,1,1
439562,0.8,7.7,6.0,0,0,946,1,1
439582,0.8,7.8,6.0,0,0,945,1,1
439602,0.8,7.8,6.0,0,0,946,1,1
439622,0.8,7.8,5.9,0,0,947,1,1
439642,0.7,7.7,5.9,0,0,946,1,1
439662,0.8,7.8,6.0,0,0,946,1,1
439682,0.8,7.8,6.0,0,0,945,1,1
439702,0.8,7.8,6.0,0,0,945,1,1
439722,0.8,7.7,6.0,0,0,944,1,1
439742,0.8,7.7,5.9,0,0,944,1,1
439762,0.8,7.8,6.0,0,0,946,1,1
439782,0.8,7.8,6.0,0,0,947,1,1
439802,0.8,7.1,4.4,0,0,944,1,1
439822,0.7,6.7,7.2,0,0,944,1,1
439842,0.5,8.9,5.8,0,0,945,1,1
439862,0.5,9.0,6.8,0,0,945,1,1
439882,0.6,7.6,5.8,0,0,931,1,1
439902,0.6,7.7,8.9,0,0,947,1,1
439922,0.7,9.0,6.9,0,0,946,1,1
439942,0.8,8.1,5.8,0,0,945,1,1
439962,0.9,8.1,6.1,0,0,944,1,1
439982,1.0,8.3,5.9,0,0,946,1,1
440002,1.3,8.3,5.5,0,0,944,1,1
440022,1.5,8.9,5.7,0,0,947,1,1
440042,1.4,9.0,5.2,0,0,944,1,1
440062,1.4,8.0,4.8,0,0,944,1,1
440082,1.3,7.7,4.3,0,0,943,1,1
440102,1.6,7.6,4.3,0,0,946,1,1
440122,1.7,7.8,3.2,0,0,945,1,1
440142,1.0,7.6,0.7,0,0,946,1,1
440162,-0.4,4.1,-3.0,0,0,948,1,1
440182,1.4,1.6,-0.7,0,0,945,1,1
440202,3.6,5.5,10.9,0,0,945,1,1
440222,0.0,15.3,15.6,0,0,946,1,1
440242,1.4,12.3,12.1,0,0,944,1,1
440262,1.4,10.1,5.3,0,0,946,1,1
440282,-0.0,4.3,4.0,0,0,946,1,1
440302,0.1,6.6,5.5,0,0,945,1,1
440322,1.5,5.5,2.5,0,0,946,1,1
440342,1.6,6.2,3.9,0,0,944,1,1
440362,2.8,9.1,5.5,0,0,943,1,1
440382,1.3,6.8,4.1,0,0,945,1,1
440402,0.7,9.0,7.2,0,0,947,1,1
440422,1.3,7.8,8.5,0,0,947,1,1
440442,1.0,8.6,6.8,0,0,946,1,1
440462,1.0,8.3,6.4,0,0,946,1,1
440482,1.0,7.5,5.8,0,0,945,1,1
440502,1.1,7.0,4.7,0,0,946,1,1
440522,1.1,6.2,4.5,0,0,946,1,1
440542,0.9,7.7,7.7,0,0,945,1,1
440562,1.0,8.6,6.2,0,0,946,1,1
440582,0.9,8.4,6.4,0,0,948,1,1
440602,0.9,7.7,6.1,0,0,944,1,1
440622,0.9,7.5,6.1,0,0,945,1,1
440642,0.9,7.5,5.6,0,0,945,1,1
440662,0.9,7.5,5.8,0,0,948,1,1
440682,0.9,7.7,6.0,0,0,946,1,1
440702,0.9,8.0,6.2,0,0,945,1,1
440722,0.9,7.9,6.1,0,0,946,1,1
440742,0.9,7.6,6.0,0,0,945,1,1
440762,1.0,7.6,5.8,0,0,947,1,1
440782,0.9,7.7,6.0,0,0,945,1,1
440802,0.9,7.8,6.0,0,0,944,1,1
440822,0.9,7.7,6.0,0,0,945,1,1
440842,0.9,7.8,6.0,0,0,943,1,1
440862,0.9,7.7,6.0,0,0,946,1,1
440882,0.9,7.7,6.0,0,0,943,1,1
440902,0.9,7.7,6.0,0,0,945,1,1
440922,0.9,7.8,6.1,0,0,948,1,1
440942,1.0,7.8,6.0,0,0,947,1,1
440962,0.9,7.7,6.0,0,0,945,1,1
440982,0.9,7.7,6.0,0,0,942,1,1
441002,0.9,7.8,6.1,0,0,945,1,1
441022,0.9,7.8,6.1,0,0,944,1,1
441042,0.9,7.2,5.8,0,0,945,1,1
441062,0.9,7.3,5.7,0,0,945,1,1
441082,0.8,7.4,5.7,0,0,944,1,1
441102,0.8,7.7,6.2,0,0,942,1,1
441122,0.7,9.2,8.2,0,0,943,1,1
441142,0.9,9.5,6.6,0,0,946,1,1
441162,0.7,6.8,6.8,0,0,945,1,1
441182,0.9,7.6,6.0,0,0,947,1,1
441202,1.0,8.7,5.9,0,0,945,1,1
441222,1.1,8.7,6.3,0,0,945,1,1
441242,1.5,8.7,5.8,0,0,945,1,1
441262,1.9,9.1,6.9,0,0,944,1,1
441282,1.5,8.8,5.1,0,0,946,1,1
441302,1.9,7.7,5.0,0,0,946,1,1
441322,1.5,7.7,4.8,0,0,945,1,1
441342,1.4,7.2,2.5,0,0,946,1,1
441362,1.0,7.5,0.9,0,0,946,1,1
441382,1.6,7.4,-0.0,0,0,942,1,1
441402,1.3,7.2,-0.6,0,0,945,1,1
441422,1.5,5.2,5.1,0,0,946,1,1
441442,0.5,8.2,9.1,0,0,944,1,1
441462,1.5,6.3,8.3,0,0,948,1,1
441482,2.1,9.5,6.5,0,0,946,1,1
441502,2.2,8.4,5.4,0,0,944,1,1
441522,1.5,8.2,5.9,0,0,945,1,1
441542,1.6,8.2,5.2,0,0,945,1,1
441562,1.8,8.3,5.5,0,0,945,1,1
441582,1.6,8.2,5.7,0,0,948,1,1
441602,1.6,6.7,4.8,0,0,945,1,1
441622,2.3,6.3,3.6,0,0,946,1,1
441642,1.7,7.3,3.8,0,0,944,1,1
441662,1.2,8.1,6.8,0,0,944,1,1
441682,0.9,9.1,5.9,0,0,943,1,1
441702,1.4,7.8,5.9,0,0,946,1,1
441722,1.2,9.2,6.7,0,0,947,1,1
441742,1.2,7.5,6.4,0,0,944,1,1
441762,1.3,7.7,5.0,0,0,944,1,1
441782,1.2,8.1,6.1,0,0,945,1,1
441802,1.3,7.8,5.7,0,0,945,1,1
441822,1.2,7.9,5.9,0,0,946,1,1
441842,1.1,7.9,5.9,0,0,946,1,1
441862,1.1,7.9,6.0,0,0,945,1,1
441882,1.1,7.8,5.8,0,0,945,1,1
441902,1.1,7.8,5.9,0,0,945,1,1
441922,1.1,7.9,6.0,0,0,943,1,1
441942,1.1,7.8,5.8,0,0,946,1,1
441962,1.2,7.7,5.8,0,0,946,1,1
441982,1.1,7.7,5.9,0,0,945,1,1
442002,1.1,7.8,5.9,0,0,948,1,1
442022,1.1,7.8,5.9,0,0,944,1,1
442042,1.1,7.8,5.9,0,0,945,1,1
442062,1.1,7.8,5.9,0,0,945,1,1
442082,1.1,7.8,5.9,0,0,946,1,1
442102,1.1,7.7,5.9,0,0,946,1,1
442122,1.1,7.8,5.9,0,0,944,1,1
442142,1.1,7.8,5.9,0,0,944,1,1
442162,1.1,7.8,5.9,0,0,946,1,1
442182,1.1,7.8,5.9,0,0,943,1,1
442202,1.1,7.8,5.9,0,0,945,1,1
442222,1.1,7.8,5.9,0,0,943,1,1
442242,1.1,7.8,5.9,0,0,946,1,1
442262,1.1,7.8,5.9,0,0,946,1,1
442282,1.1,7.8,5.9,0,0,945,1,1
442302,1.1,7.8,5.9,0,0,945,1,1
442322,1.1,7.8,5.9,0,0,946,1,1
442342,1.1,7.8,5.9,0,0,947,1,1
442362,1.1,7.8,5.9,0,0,946,1,1
442382,1.1,7.1,5.5,0,0,946,1,1
442402,1.0,6.9,4.8,0,0,945,1,1
442422,1.1,7.5,5.4,0,0,944,1,1
442442,0.8,7.4,5.6,0,0,943,1,1
442462,0.5,10.7,10.4,0,0,943,1,1
442482,0.7,7.7,5.8,0,0,945,1,1
442502,0.7,6.7,5.1,0,0,944,1,1
442522,0.7,7.9,6.2,0,0,948,1,1
442542,0.7,8.6,6.5,0,0,946,1,1
442562,0.7,8.7,6.0,0,0,946,1,1
442582,1.0,8.5,6.6,0,0,945,1,1
442602,1.2,8.8,7.2,0,0,947,1,1
442622,1.4,9.3,7.1,0,0,946,1,1
442642,2.3,7.8,9.6,0,0,947,1,1
442662,0.7,7.5,4.7,0,0,945,1,1
442682,1.1,7.7,4.9,0,0,945,1,1
442702,1.2,8.2,3.9,0,0,944,1,1
442722,1.3,7.1,2.9,0,0,942,1,1
442742,1.2,7.0,1.0,0,0,944,1,1
442762,0.8,7.1,-1.9,0,0,946,1,1
442782,0.8,5.0,-7.7,0,0,945,1,1
442802,8.4,1.8,13.5,0,0,945,1,1
442822,10.0,14.9,15.7,0,0,945,1,1
442842,2.1,9.2,12.0,0,0,943,1,1
442862,1.0,14.5,8.4,0,0,944,1,1
442882,1.5,12.9,10.5,0,0,946,1,1
442902,-1.5,-1.6,7.5,0,0,945,1,1
442922,1.1,8.9,4.5,0,0,945,1,1
442942,1.2,6.6,3.5,0,0,947,1,1
442962,1.2,6.7,5.2,0,0,944,1,1
442982,1.1,7.7,5.6,0,0,941,1,1
443002,0.8,8.1,6.2,0,0,945,1,1
443022,0.9,8.4,7.4,0,0,945,1,1
443042,0.9,8.4,6.8,0,0,945,1,1
443062,0.9,7.8,6.6,0,0,948,1,1
443082,1.0,7.5,5.7,0,0,946,1,1
443102,1.0,7.6,5.4,0,0,945,1,1
443122,1.0,7.4,5.6,0,0,945,1,1
443142,1.0,7.5,6.3,0,0,947,1,1
443162,1.0,8.1,6.2,0,0,946,1,1
443182,1.0,8.1,6.1,0,0,944,1,1
443202,0.9,7.6,6.1,0,0,944,1,1
443222,1.0,7.6,5.8,0,0,943,1,1
443242,1.0,7.6,5.8,0,0,944,1,1
443262,1.0,7.8,5.8,0,0,942,1,1
443282,1.0,7.8,6.3,0,0,945,1,1
443302,1.0,7.8,6.1,0,0,945,1,1
443322,1.0,7.7,6.0,0,0,945,1,1
443342,1.0,7.7,5.9,0,0,948,1,1
443362,1.0,7.8,6.0,0,0,946,1,1
443382,1.0,7.8,6.1,0,0,946,1,1
443402,1.0,7.8,6.0,0,0,945,1,1
443422,1.0,7.7,6.0,0,0,946,1,1
443442,1.0,7.7,5.9,0,0,944,1,1
443462,1.0,7.8,6.0,0,0,945,1,1
443482,0.9,7.8,6.0,0,0,952,1,1
443502,1.0,7.8,6.0,0,0,947,1,1
443522,1.0,7.7,6.0,0,0,946,1,1
443542,1.0,7.7,6.0,0,0,944,1,1
443562,1.0,7.8,6.0,0,0,946,1,1
443582,1.0,7.8,6.0,0,0,944,1,1
443602,1.0,7.8,6.0,0,0,945,1,1
443622,1.0,7.7,6.0,0,0,947,1,1
443642,1.0,7.7,6.0,0,0,943,1,1
443662,1.0,7.8,6.0,0,0,945,1,1
443682,1.0,7.7,6.0,0,0,944,1,1
443702,1.0,7.7,6.0,0,0,946,1,1
443722,1.0,7.7,6.0,0,0,944,1,1
443742,0.9,7.7,6.0,0,0,946,1,1
443762,0.9,7.7,6.0,0,0,946,1,1
443782,1.0,7.7,6.0,0,0,945,1,1
443802,1.0,7.7,6.0,0,0,946,1,1
443822,1.0,7.7,6.0,0,0,944,1,1
443842,1.6,6.0,8.1,0,0,945,1,1
443862,0.6,6.8,3.3,0,0,943,1,1
443882,2.2,9.9,24.0,0,0,943,1,1
443902,0.4,12.0,0.5,0,0,947,1,1
443922,0.5,6.1,10.7,0,0,946,1,1
443942,0.7,7.1,2.4,0,0,944,1,1
443962,1.0,6.5,4.1,0,0,946,1,1
443982,0.9,8.3,5.9,0,0,945,1,1
444002,0.9,12.7,1.9,0,0,946,1,1
444022,0.6,7.5,4.8,0,0,947,1,1
444042,0.7,8.7,7.5,0,0,946,1,1
444062,0.6,10.6,7.3,0,0,946,1,1
444082,0.7,10.8,5.8,0,0,944,1,1
444102,1.4,9.7,7.2,0,0,945,1,1
444122,1.1,8.0,6.0,0,0,944,1,1
444142,1.0,7.0,4.0,0,0,945,1,1
444162,0.9,6.9,4.6,0,0,947,1,1
444182,1.5,7.1,3.2,0,0,946,1,1
444202,0.6,7.5,0.6,0,0,944,1,1
444222,1.0,7.7,-0.5,0,0,947,1,1
444242,1.1,9.6,-5.2,0,0,943,1,1
444262,4.2,-1.1,0.4,0,0,945,1,1
444282,-1.9,8.4,-2.5,0,0,945,1,1
444302,3.4,8.8,12.7,0,0,945,1,1
444322,0.9,12.0,2.2,0,0,946,1,1
444342,-0.8,11.6,10.7,0,0,944,1,1
444362,1.3,7.1,9.4,0,0,943,1,1
444382,1.5,7.7,4.3,0,0,943,1,1
444402,1.3,7.8,5.5,0,0,946,1,1
444422,1.3,7.8,5.4,0,0,946,1,1
444442,1.2,7.4,5.3,0,0,947,1,1
444462,1.3,8.2,6.3,0,0,944,1,1
444482,1.3,7.7,6.2,0,0,945,1,1
444502,1.1,7.4,5.2,0,0,944,1,1
444522,1.1,7.6,6.0,0,0,946,1,1
444542,1.3,7.8,4.8,0,0,945,1,1
444562,1.2,7.7,6.0,0,0,945,1,1
444582,1.2,7.2,5.3,0,0,946,1,1
444602,1.2,7.3,5.9,0,0,946,1,1
444622,1.2,7.4,5.9,0,0,943,1,1
444642,1.2,7.6,5.8,0,0,944,1,1
444662,1.2,7.5,5.7,0,0,944,1,1
444682,1.2,7.9,5.8,0,0,945,1,1
444702,1.1,7.8,5.9,0,0,949,1,1
444722,1.1,7.6,5.8,0,0,945,1,1
444742,1.1,7.7,5.9,0,0,945,1,1
444762,1.1,7.9,6.0,0,0,946,1,1
444782,1.2,7.7,5.9,0,0,946,1,1
444802,1.2,7.7,5.9,0,0,946,1,1
444822,1.2,7.8,6.0,0,0,945,1,1
444842,1.2,7.7,6.0,0,0,944,1,1
444862,1.1,7.7,5.9,0,0,945,1,1
444882,1.1,7.8,6.0,0,0,944,1,1
444902,1.1,7.8,6.0,0,0,944,1,1
444922,1.2,7.7,5.9,0,0,943,1,1
444942,1.2,7.7,6.0,0,0,945,1,1
444962,1.2,7.8,6.0,0,0,942,1,1
444982,1.2,7.7,5.9,0,0,946,1,1
445002,1.2,7.7,6.0,0,0,946,1,1
445022,1.2,7.7,6.0,0,0,945,1,1
445042,1.1,7.7,6.0,0,0,943,1,1
445062,1.1,7.7,6.0,0,0,945,1,1
445082,1.1,7.8,6.0,0,0,946,1,1
445102,1.1,7.7,6.0,0,0,947,1,1
445122,1.1,7.7,5.9,0,0,945,1,1
445142,1.1,7.7,6.0,0,0,946,1,1
445162,1.1,7.7,6.0,0,0,943,1,1
445182,1.2,7.7,6.0,0,0,944,1,1
445202,1.1,7.7,6.0,0,0,946,1,1
445222,1.2,7.7,6.0,0,0,946,1,1
445242,1.1,7.7,6.0,0,0,947,1,1
445262,1.1,7.7,6.0,0,0,945,1,1
445282,1.1,7.7,6.0,0,0,945,1,1
445302,1.2,7.7,6.0,0,0,945,1,1
445322,1.2,7.7,6.0,0,0,946,1,1
445342,1.1,7.7,6.0,0,0,946,1,1
445362,1.1,7.7,5.9,0,0,946,1,1
445382,1.1,7.7,6.0,0,0,945,1,1
445402,1.1,7.7,6.0,0,0,945,1,1
445422,1.1,7.7,6.0,0,0,943,1,1
445442,1.1,7.7,6.0,0,0,944,1,1
445462,1.1,7.8,6.0,0,0,945,1,1
445482,1.1,7.7,6.0,0,0,948,1,1
445502,1.1,7.7,6.0,0,0,945,1,1
445522,1.1,7.7,6.0,0,0,946,1,1
445542,0.9,3.0,3.8,0,0,946,1,1
445562,1.3,10.1,3.7,0,0,944,1,1
445582,1.3,8.2,27.3,0,0,945,1,1
445602,1.3,10.0,7.0,0,0,944,1,1
445622,1.2,9.5,7.9,0,0,946,1,1
445642,1.0,8.5,4.0,0,0,946,1,1
445662,1.4,7.4,4.6,0,0,943,1,1
445682,1.7,7.2,3.3,0,0,943,1,1
445702,1.8,9.5,3.2,0,0,943,1,1
445722,2.6,9.6,2.3,0,0,945,1,1
445742,1.0,5.4,0.8,0,0,947,1,1
445762,3.3,8.1,3.2,0,0,944,1,1
445782,2.5,7.6,4.3,0,0,946,1,1
445802,1.1,6.6,5.7,0,0,946,1,1
445822,0.6,11.1,7.7,0,0,945,1,1
445842,1.1,11.2,8.2,0,0,945,1,1
445862,0.6,9.5,9.0,0,0,945,1,1
445882,1.2,4.6,6.6,0,0,944,1,1
445902,1.3,9.3,5.1,0,0,945,1,1
445922,0.9,5.9,5.8,0,0,945,1,1
445942,1.3,6.1,2.5,0,0,944,1,1
445962,1.2,6.6,5.6,0,0,946,1,1
445982,1.1,7.6,5.6,0,0,943,1,1
446002,1.2,8.6,6.3,0,0,945,1,1
446022,1.1,8.2,6.9,0,0,946,1,1
446042,1.0,8.1,7.0,0,0,945,1,1
446062,1.0,7.8,6.0,0,0,947,1,1
446082,1.1,7.0,5.3,0,0,943,1,1
446102,1.2,7.2,4.6,0,0,943,1,1
446122,1.1,7.8,5.9,0,0,946,1,1
446142,1.1,7.7,6.1,0,0,944,1,1
446162,1.2,8.8,3.6,0,0,943,1,1
446182,0.9,7.3,7.0,0,0,946,1,1
446202,1.1,7.0,5.5,0,0,946,1,1
446222,1.0,8.3,7.0,0,0,945,1,1
446242,1.1,7.9,6.2,0,0,945,1,1
446262,1.0,7.2,5.6,0,0,941,1,1
446282,1.0,7.8,6.1,0,0,945,1,1
446302,1.1,7.8,6.1,0,0,947,1,1
446322,1.1,7.3,5.7,0,0,946,1,1
446342,1.1,7.8,6.2,0,0,949,1,1
446362,1.1,8.0,6.2,0,0,946,1,1
446382,1.1,7.4,5.9,0,0,946,1,1
446402,1.1,7.5,5.9,0,0,944,1,1
446422,1.1,7.9,6.2,0,0,945,1,1
446442,1.0,7.7,6.1,0,0,944,1,1
446462,1.1,7.5,6.0,0,0,947,1,1
446482,1.1,7.8,6.1,0,0,946,1,1
446502,1.1,7.7,6.1,0,0,944,1,1
446522,1.1,7.5,5.9,0,0,946,1,1
446542,1.1,7.8,6.1,0,0,945,1,1
446562,1.1,7.8,6.1,0,0,946,1,1
446582,1.1,7.5,6.0,0,0,946,1,1
446602,1.1,7.7,6.1,0,0,945,1,1
446622,1.0,7.8,6.1,0,0,947,1,1
446642,1.1,7.6,6.0,0,0,944,1,1
446662,1.1,7.6,6.0,0,0,945,1,1
446682,1.1,7.7,6.1,0,0,947,1,1
446702,1.1,7.6,6.0,0,0,946,1,1
446722,1.1,7.6,6.0,0,0,947,1,1
446742,1.1,7.7,6.1,0,0,946,1,1
446762,1.0,7.7,6.1,0,0,945,1,1
446782,1.1,7.6,6.0,0,0,944,1,1
446802,1.1,7.7,6.1,0,0,942,1,1
446822,1.1,7.7,6.1,0,0,943,1,1
446842,1.0,7.6,4.8,0,0,943,1,1
446862,0.6,3.8,12.9,0,0,945,1,1
446882,0.1,15.0,9.3,0,0,946,1,1
446902,0.5,7.6,13.7,0,0,948,1,1
446922,0.5,7.5,8.3,0,0,945,1,1
446942,0.3,6.8,8.9,0,0,943,1,1
446962,0.6,9.4,7.5,0,0,945,1,1
446982,0.6,7.3,7.2,0,0,946,1,1
447002,0.8,7.7,2.0,0,0,944,1,1
447022,1.3,8.1,6.6,0,0,944,1,1
447042,1.8,8.5,4.3,0,0,946,1,1
447062,1.9,8.6,3.7,0,0,944,1,1
447082,2.7,8.7,2.8,0,-7,944,1,1
447102,1.1,7.9,-0.7,0,-7,944,1,1
447122,0.4,4.0,-4.0,0,-5,957,1,1
447142,4.9,8.9,9.3,0,-5,944,1,1
447162,1.5,7.2,6.5,0,0,945,1,1
447182,1.5,6.3,10.2,0,0,946,1,1
447202,-4.7,4.8,7.3,0,0,945,1,1
447222,0.2,11.5,13.9,0,0,945,1,1
447242,1.0,10.7,12.1,0,0,945,1,1
447262,0.2,3.9,17.6,0,0,945,1,1
447282,0.7,6.8,11.7,0,0,944,1,1
447302,0.4,9.2,7.3,0,0,947,1,1
447322,1.3,7.5,8.5,0,0,947,1,1
447342,0.8,6.1,4.1,0,0,945,1,1
447362,0.7,8.1,6.9,0,0,943,1,1
447382,0.7,8.3,5.1,0,0,944,1,1
447402,0.7,7.1,6.1,0,0,945,1,1
447422,0.6,8.1,7.1,0,0,946,1,1
447442,0.7,7.9,6.1,0,0,948,1,1
447462,0.7,7.2,5.8,0,0,945,1,1
447482,0.7,7.4,6.1,0,0,945,1,1
447502,0.7,7.5,5.9,0,0,946,1,1
447522,0.7,7.5,6.1,0,0,945,1,1
447542,0.7,7.8,6.3,0,0,945,1,1
447562,0.7,7.8,6.3,0,0,946,1,1
447582,0.7,7.5,6.1,0,0,946,1,1
447602,0.7,7.5,6.1,0,0,941,1,1
447622,0.7,7.7,6.1,0,0,944,1,1
447642,0.7,7.7,6.1,0,0,944,1,1
447662,0.7,7.7,6.2,0,0,944,1,1
447682,0.7,7.7,6.1,0,0,944,1,1
447702,0.7,7.6,6.1,0,0,945,1,1
447722,0.7,7.6,6.1,0,0,949,1,1
447742,0.7,7.7,6.2,0,0,945,1,1
447762,0.7,7.7,6.1,0,0,943,1,1
447782,0.7,7.6,6.1,0,0,944,1,1
447802,0.7,7.7,6.1,0,0,943,1,1
447822,0.7,7.7,6.1,0,0,945,1,1
447842,0.7,7.7,6.1,0,0,946,1,1
447862,0.7,7.7,6.1,0,0,944,1,1
447882,0.7,7.7,6.1,0,0,945,1,1
447902,0.7,7.6,6.1,0,0,946,1,1
447922,0.7,7.7,6.1,0,0,956,1,1
447942,0.7,7.7,6.1,0,0,944,1,1
447962,0.7,7.7,6.1,0,0,945,1,1
447982,0.7,7.7,6.1,0,0,943,1,1
448002,0.7,7.7,6.1,0,0,947,1,1
448022,0.7,7.6,6.1,0,0,946,1,1
448042,0.7,7.7,6.1,0,0,945,1,1
448062,0.7,7.7,6.1,0,0,948,1,1
448082,0.7,7.7,6.1,0,0,946,1,1
448102,0.7,7.7,6.1,0,0,943,1,1
448122,0.7,7.7,6.1,0,0,947,1,1
448142,0.7,7.6,6.1,0,0,946,1,1
448162,0.7,7.6,6.1,0,0,945,1,1
448182,0.7,7.7,6.1,0,0,943,1,1
448202,0.7,7.6,6.1,0,0,945,1,1
448222,0.7,7.7,6.1,0,0,945,1,1
448242,0.7,7.7,6.1,0,0,944,1,1
448262,0.7,7.6,6.1,0,0,948,1,1
448282,0.7,7.6,6.1,0,0,946,1,1
448302,0.7,7.7,6.1,0,0,945,1,1
448322,0.7,7.7,6.1,0,0,945,1,1
448342,0.4,4.1,6.1,0,0,946,1,1
448362,0.2,0.2,7.5,0,0,944,1,1
448382,0.3,6.7,5.3,0,0,946,1,1
448402,0.5,7.7,7.7,0,0,945,1,1
448422,0.5,7.5,7.1,0,0,945,1,1
448442,0.8,8.9,6.9,0,0,946,1,1
448462,0.4,8.2,7.0,0,0,944,1,1
448482,0.9,9.6,7.3,0,0,946,1,1
448502,0.9,9.6,7.0,0,0,945,1,1
448522,1.8,9.0,7.7,0,0,948,1,1
448542,0.4,7.0,7.0,0,0,946,1,1
448562,0.7,7.3,2.7,0,0,944,1,1
448582,0.7,7.2,-0.6,0,0,944,1,1
448602,0.1,6.3,-2.6,0,2,946,1,1
448622,0.2,4.5,-5.5,0,5,947,1,1
448642,-2.0,12.2,8.3,0,2,947,1,1
448662,-0.1,7.2,6.4,0,0,944,1,1
448682,1.2,10.4,12.8,0,0,946,1,1
448702,1.4,11.8,8.5,0,0,943,1,1
448722,1.8,8.2,5.5,0,0,942,1,1
448742,0.4,6.3,6.3,0,0,944,1,1
448762,2.4,7.9,5.5,0,0,946,1,1
448782,1.4,6.3,2.3,0,0,944,1,1
448802,1.6,6.2,5.3,0,0,947,1,1
448822,1.6,8.2,5.4,0,0,946,1,1
448842,1.1,8.1,6.5,0,0,946,1,1
448862,1.2,7.6,5.6,0,0,945,1,1
448882,1.2,8.1,6.1,0,0,945,1,1
448902,1.1,7.9,6.4,0,0,947,1,1
448922,1.2,7.1,4.9,0,0,946,1,1
448942,1.2,7.4,5.8,0,0,947,1,1
448962,1.2,7.9,5.8,0,0,944,1,1
448982,1.1,7.6,6.3,0,0,947,1,1
449002,1.2,7.6,6.0,0,0,943,1,1
449022,1.2,8.1,6.3,0,0,959,1,1
449042,1.1,7.6,6.1,0,0,944,1,1
449062,1.1,6.1,5.8,0,0,946,1,1
449082,1.1,7.8,6.2,0,0,947,1,1
449102,1.2,7.8,6.1,0,0,947,1,1
449122,1.1,7.5,6.0,0,0,945,1,1
449142,1.2,7.7,6.1,0,0,945,1,1
449162,1.2,7.8,6.1,0,0,946,1,1
449182,1.2,7.5,6.0,0,0,945,1,1
449202,1.2,7.7,6.0,0,0,946,1,1
449222,1.2,7.8,6.1,0,0,947,1,1
449242,1.1,7.6,6.0,0,0,945,1,1
449262,1.1,7.6,6.0,0,0,943,1,1
449282,1.1,7.7,6.1,0,0,945,1,1
449302,1.2,7.7,6.1,0,0,945,1,1
449322,1.2,7.6,6.0,0,0,944,1,1
449342,1.2,7.7,6.1,0,0,946,1,1
449362,1.2,7.7,6.0,0,0,945,1,1
449382,1.2,7.6,6.0,0,0,945,1,1
449402,1.1,7.7,6.1,0,0,946,1,1
449422,1.1,7.7,6.1,0,0,947,1,1
449442,1.1,7.6,6.0,0,0,946,1,1
449462,1.1,7.6,6.1,0,0,946,1,1
449482,1.2,7.7,6.1,0,0,946,1,1
449502,1.2,7.6,6.0,0,0,946,1,1
449522,1.2,7.7,6.0,0,0,945,1,1
449542,1.1,7.7,6.1,0,0,944,1,1
449562,1.1,7.6,6.0,0,0,945,1,1
449582,1.2,7.1,5.1,0,0,945,1,1
449602,1.1,7.3,6.4,0,0,947,1,1
449622,1.1,7.6,5.8,0,0,946,1,1
449642,2.2,7.3,2.9,0,0,946,1,1
449662,1.4,8.2,8.0,0,0,945,1,1
449682,1.1,8.2,6.4,0,0,946,1,1
449702,1.1,7.2,5.8,0,0,946,1,1
449722,1.1,7.1,5.5,0,0,945,1,1
449742,1.2,7.6,5.9,0,0,944,1,1
449762,1.1,7.9,6.3,0,0,946,1,1
449782,1.1,7.7,6.1,0,0,944,1,1
449802,1.1,7.8,6.2,0,0,946,1,1
449822,1.1,7.5,6.1,0,0,946,1,1
449842,0.8,4.3,4.4,0,0,946,1,1
449862,1.1,9.0,5.3,0,0,946,1,1
449882,0.8,8.8,9.4,0,0,948,1,1
449902,1.0,8.1,7.0,0,0,945,1,1
449922,0.7,8.6,8.8,0,0,944,1,1
449942,0.2,12.7,1.3,0,0,944,1,1
449962,0.1,5.5,6.1,0,0,947,1,1
449982,0.7,6.7,3.6,0,0,945,1,1
450002,1.5,10.3,5.5,0,0,946,1,1
450022,2.4,6.6,2.8,0,0,945,1,1
450042,1.5,8.3,3.5,0,0,946,1,1
450062,2.8,8.8,0.3,0,0,942,1,1
450082,1.2,5.5,-0.6,0,0,945,1,1
450102,1.9,3.5,-0.4,0,0,945,1,1
450122,3.0,1.3,1.0,0,0,945,1,1
450142,0.1,8.3,12.4,0,0,946,1,1
450162,1.1,10.9,-4.8,0,0,944,1,1
450182,-0.1,3.3,5.7,0,0,946,1,1
450202,-0.3,6.2,7.9,0,0,946,1,1
450222,0.4,9.0,13.1,0,0,946,1,1
450242,0.5,7.3,8.8,0,0,944,1,1
450262,0.7,7.4,8.8,0,0,945,1,1
450282,1.0,4.6,0.1,0,0,945,1,1
450302,1.1,4.8,4.3,0,0,944,1,1
450322,1.1,7.1,4.9,0,0,943,1,1
450342,0.7,5.4,9.0,0,0,945,1,1
450362,0.7,14.0,12.2,0,0,945,1,1
450382,0.7,9.7,5.3,0,0,947,1,1
450402,0.9,5.9,5.4,0,0,947,1,1
450422,0.9,6.5,5.7,0,0,945,1,1
450442,1.0,7.3,6.0,0,0,946,1,1
450462,0.9,7.5,6.0,0,0,944,1,1
450482,0.8,7.0,8.3,0,0,945,1,1
450502,0.8,7.5,6.8,0,0,944,1,1
450522,0.8,7.5,6.6,0,0,947,1,1
450542,0.8,7.0,6.2,0,0,944,1,1
450562,0.9,6.9,5.9,0,0,945,1,1
450582,0.9,7.6,6.3,0,0,942,1,1
450602,0.8,7.9,6.9,0,0,945,1,1
450622,0.8,7.5,7.0,0,0,946,1,1
450642,0.9,7.3,6.0,0,0,946,1,1
450662,0.8,7.0,6.5,0,0,949,1,1
450682,0.8,6.9,6.3,0,0,946,1,1
450702,0.8,7.5,7.1,0,0,946,1,1
450722,0.8,7.5,6.8,0,0,944,1,1
450742,0.8,7.1,6.6,0,0,946,1,1
450762,0.8,7.3,6.5,0,0,945,1,1
450782,0.8,7.3,6.6,0,0,948,1,1
450802,0.8,7.2,6.6,0,0,946,1,1
450822,0.8,7.2,6.6,0,0,943,1,1
450842,0.8,7.2,6.6,0,0,947,1,1
450862,0.8,7.3,6.6,0,0,944,1,1
450882,0.8,7.3,6.6,0,0,947,1,1
450902,0.8,7.3,6.6,0,0,944,1,1
450922,0.8,7.3,6.6,0,0,947,1,1
450942,0.8,7.3,6.6,0,0,946,1,1
450962,0.8,7.3,6.6,0,0,946,1,1
450982,0.8,7.2,6.6,0,0,946,1,1
451002,0.8,7.3,6.6,0,0,946,1,1
451022,0.8,7.3,6.6,0,0,946,1,1
451042,0.8,7.3,6.6,0,0,945,1,1
451062,0.8,7.3,6.6,0,0,946,1,1
451082,0.8,7.2,6.6,0,0,946,1,1
451102,0.8,7.3,6.6,0,0,945,1,1
451122,0.8,7.3,6.6,0,0,944,1,1
451142,0.8,7.3,6.6,0,0,944,1,1
451162,0.8,7.3,6.6,0,0,945,1,1
451182,0.8,7.3,6.6,0,0,945,1,1
451202,0.8,7.2,6.6,0,0,947,1,1
451222,0.8,7.3,6.6,0,0,945,1,1
451242,0.8,7.3,6.6,0,0,945,1,1
451262,0.8,7.3,6.6,0,0,946,1,1
451282,0.8,7.3,6.6,0,0,945,1,1
451302,0.8,7.2,6.6,0,0,947,1,1
451322,0.6,3.4,1.8,0,0,946,1,1
451342,0.8,5.0,11.6,0,0,943,1,1
451362,0.6,6.3,7.4,0,0,943,1,1
451382,1.4,10.3,10.4,0,0,942,1,1
451402,1.0,8.4,7.7,0,0,945,1,1
451422,1.3,8.7,11.7,0,0,946,1,1
451442,1.3,9.1,6.8,0,0,943,1,1
451462,1.9,9.4,7.5,0,0,948,1,1
451482,1.2,7.4,5.0,0,-5,943,1,1
451502,1.1,5.1,2.3,0,-3,946,1,1
451522,1.8,6.6,-0.6,0,-1,942,1,1
451542,2.1,7.5,1.7,0,0,947,1,1
451562,2.2,6.8,1.3,0,0,945,1,1
451582,1.8,5.7,1.9,37,1,945,1,1
451602,5.9,8.5,2.9,22,-1,945,1,1
451622,4.5,4.9,1.6,-5,0,947,1,1
451642,0.8,9.7,13.7,-10,0,945,1,1
451662,1.2,11.7,10.7,0,0,943,1,1
451682,0.9,9.4,8.6,0,0,946,1,1
451702,1.0,6.9,7.4,0,0,947,1,1
451722,1.3,8.0,3.7,0,0,946,1,1
451742,1.2,5.4,5.1,0,0,946,1,1
451762,1.0,7.0,6.2,0,0,945,1,1
451782,1.0,7.9,6.7,0,0,945,1,1
451802,1.1,8.4,7.7,0,0,945,1,1
451822,0.9,8.5,7.7,0,0,944,1,1
451842,0.9,8.1,7.4,0,0,946,1,1
451862,1.0,7.6,6.0,0,0,944,1,1
451882,1.0,7.4,5.9,0,0,944,1,1
451902,1.0,7.2,5.9,0,0,944,1,1
451922,1.0,7.5,6.0,0,0,943,1,1
451942,1.0,7.8,6.3,0,0,946,1,1
451962,1.0,7.9,6.7,0,0,946,1,1
451982,1.0,7.6,6.4,0,0,946,1,1
452002,1.0,7.6,6.3,0,0,945,1,1
452022,1.0,7.4,6.1,0,0,946,1,1
452042,1.0,7.3,6.1,0,0,944,1,1
452062,1.0,7.6,6.2,0,0,946,1,1
452082,1.0,7.6,6.4,0,0,944,1,1
452102,1.0,7.6,6.3,0,0,946,1,1
452122,1.0,7.5,6.2,0,0,945,1,1
452142,1.0,7.5,6.2,0,0,946,1,1
452162,1.0,7.5,6.2,0,0,948,1,1
452182,1.0,7.6,6.2,0,0,944,1,1
452202,1.0,7.6,6.3,0,0,943,1,1
452222,1.0,7.5,6.2,0,0,944,1,1
452242,1.0,7.5,6.2,0,0,949,1,1
452262,1.0,7.5,6.3,0,0,947,1,1
452282,1.0,7.6,6.3,0,0,945,1,1
452302,1.0,7.5,6.3,0,0,945,1,1
452322,1.0,7.5,6.2,0,0,945,1,1
452342,1.0,7.5,6.2,0,0,947,1,1
452362,1.0,7.5,6.2,0,0,944,1,1
452382,1.0,7.6,6.3,0,0,946,1,1
452402,1.0,7.5,6.3,0,0,945,1,1
452422,1.0,7.5,6.2,0,0,944,1,1
452442,1.0,7.5,6.2,0,0,943,1,1
452462,1.0,7.5,6.2,0,0,945,1,1
452482,1.0,7.5,6.2,0,0,945,1,1
452502,1.0,7.5,6.2,0,0,948,1,1
452522,1.0,7.5,6.2,0,0,946,1,1
452542,1.0,7.5,6.3,0,0,945,1,1
452562,1.0,7.5,6.3,0,0,945,1,1
452582,1.0,7.5,6.3,0,0,945,1,1
452602,1.0,7.5,6.2,0,0,944,1,1
452622,1.0,7.5,6.2,0,0,947,1,1
452642,1.0,7.5,6.3,0,0,944,1,1
452662,1.0,7.5,6.2,0,0,946,1,1
452682,1.0,7.5,6.2,0,0,944,1,1
452702,1.0,7.5,6.2,0,0,941,1,1
452722,1.0,7.5,6.2,0,0,943,1,1
452742,1.0,6.8,4.4,0,0,944,1,1
452762,0.6,7.4,8.9,0,0,945,1,1
452782,0.9,9.5,6.8,0,0,947,1,1
452802,1.0,9.6,7.6,0,0,948,1,1
452822,1.2,7.6,2.9,0,0,946,1,1
452842,1.7,10.7,10.3,0,0,947,1,1
452862,2.2,8.9,7.3,0,0,945,1,1
452882,1.2,6.9,4.0,0,0,947,1,1
452902,0.6,6.3,2.6,0,0,945,1,1
452922,1.1,7.1,0.6,0,0,946,1,1
452942,1.3,7.6,0.5,18,0,946,1,1
452962,1.8,7.8,1.7,8,-1,943,1,1
452982,1.6,7.3,-1.1,8,-6,945,1,1
453002,1.5,4.7,-1.1,6,18,946,1,1
453022,6.4,9.9,11.9,6,12,945,1,1
453042,-1.5,6.1,6.4,0,0,946,1,1
453062,-0.2,10.7,11.8,0,0,946,1,1
453082,0.7,9.8,10.7,0,0,946,1,1
453102,0.4,9.7,12.0,0,0,944,1,1
453122,0.9,7.3,6.6,0,0,945,1,1
453142,0.5,8.8,4.7,0,0,946,1,1
453162,0.7,6.3,5.7,0,0,947,1,1
453182,1.0,6.9,6.4,0,0,945,1,1
453202,0.9,7.1,4.6,0,0,947,1,1
453222,1.2,8.0,5.9,0,0,945,1,1
453242,0.8,8.6,7.1,0,0,944,1,1
453262,0.8,7.9,7.1,0,0,945,1,1
453282,0.8,7.3,6.4,0,0,946,1,1
453302,0.9,7.5,6.2,0,0,948,1,1
453322,0.9,7.4,5.7,0,0,948,1,1
453342,0.9,7.2,5.9,0,0,947,1,1
453362,0.8,7.4,6.3,0,0,946,1,1
453382,0.8,7.9,6.5,0,0,948,1,1
453402,0.8,7.8,6.4,0,0,945,1,1
453422,0.8,7.5,6.3,0,0,943,1,1
453442,0.9,7.5,6.3,0,0,946,1,1
453462,0.9,7.0,6.0,0,0,945,1,1
453482,0.9,7.2,6.2,0,0,946,1,1
453502,0.9,8.3,6.5,0,0,946,1,1
453522,0.9,8.6,6.6,0,0,945,1,1
453542,0.7,7.1,5.2,0,0,947,1,1
453562,1.3,8.4,5.4,0,0,946,1,1
453582,1.0,7.1,5.1,0,0,945,1,1
453602,0.8,7.6,7.5,0,0,947,1,1
453622,0.8,7.4,6.3,0,0,945,1,1
453642,0.9,7.4,6.3,0,0,946,1,1
453662,0.9,8.0,6.5,0,0,946,1,1
453682,0.9,7.5,6.0,0,0,947,1,1
453702,0.9,7.0,5.8,0,0,946,1,1
453722,0.8,7.6,6.6,0,0,946,1,1
453742,0.8,7.8,6.5,0,0,946,1,1
453762,0.8,7.4,6.1,0,0,946,1,1
453782,0.8,7.7,6.3,0,0,945,1,1
453802,0.8,7.7,6.3,0,0,945,1,1
453822,0.9,7.3,5.7,0,0,947,1,1
453842,0.9,7.7,6.2,0,0,946,1,1
453862,0.8,7.8,6.4,0,0,948,1,1
453882,0.9,7.4,6.1,0,0,947,1,1
453902,0.8,7.6,6.3,0,0,945,1,1
453922,0.8,7.7,6.3,0,0,945,1,1
453942,0.9,7.4,6.1,0,0,945,1,1
453962,0.9,7.6,6.3,0,0,946,1,1
453982,0.8,7.7,6.3,0,0,946,1,1
454002,0.9,7.5,6.1,0,0,946,1,1
454022,0.8,7.5,6.2,0,0,946,1,1
454042,0.8,7.6,6.3,0,0,947,1,1
454062,0.8,7.5,6.2,0,0,944,1,1
454082,0.8,7.6,6.2,0,0,945,1,1
454102,0.8,7.6,6.3,0,0,945,1,1
454122,0.9,7.5,6.2,0,0,945,1,1
454142,0.8,7.5,6.2,0,0,948,1,1
454162,0.9,5.9,2.2,0,0,948,1,1
454182,1.0,6.8,7.4,0,0,946,1,1
454202,0.3,13.0,5.5,0,0,945,1,1
454222,0.6,7.3,5.8,0,0,946,1,1
454242,0.6,8.7,9.9,0,0,946,1,1
454262,1.7,11.3,8.9,0,0,946,1,1
454282,0.6,8.5,6.9,0,0,944,1,1
454302,1.5,8.2,6.8,0,0,945,1,1
454322,1.3,7.0,6.0,0,0,945,1,1
454342,1.7,8.1,4.8,0,0,945,1,1
454362,1.6,9.2,4.4,0,0,946,1,1
454382,0.6,7.7,1.1,4,-1,946,1,1
454402,0.3,7.2,-3.3,0,-1,947,1,1
454422,1.4,7.9,1.3,0,-1,947,1,1
454442,2.5,6.6,0.2,-13,-2,944,1,1
454462,2.3,5.8,-0.2,-15,-2,945,1,1
454482,-1.3,4.0,14.8,-5,-1,945,1,1
454502,4.1,8.2,8.7,0,0,944,1,1
454522,1.4,10.5,7.7,0,0,945,1,1
454542,1.6,6.8,7.4,0,0,944,1,1
454562,0.7,7.1,8.2,0,0,947,1,1
454582,1.4,7.4,7.2,0,0,945,1,1
454602,0.8,7.2,5.1,0,0,944,1,1
454622,1.3,6.7,4.2,0,0,942,1,1
454642,0.9,7.9,8.3,0,0,944,1,1
454662,1.1,7.9,5.1,0,0,946,1,1
454682,1.0,8.3,6.9,0,0,945,1,1
454702,1.1,7.5,5.8,0,0,948,1,1
454722,1.0,7.8,6.3,0,0,947,1,1
454742,1.0,7.5,5.8,0,0,945,1,1
454762,1.0,7.7,6.0,0,0,945,1,1
454782,1.0,7.6,6.0,0,0,944,1,1
454802,1.0,7.8,6.1,0,0,946,1,1
454822,1.0,7.8,6.1,0,0,946,1,1
454842,1.0,7.6,6.0,0,0,942,1,1
454862,1.0,7.6,6.0,0,0,944,1,1
454882,1.1,7.7,6.1,0,0,944,1,1
454902,1.0,7.7,6.1,0,0,943,1,1
454922,1.0,7.6,6.0,0,0,946,1,1
454942,1.0,7.7,6.1,0,0,945,1,1
454962,1.0,7.7,6.1,0,0,944,1,1
454982,1.0,7.7,6.1,0,0,948,1,1
455002,1.0,7.7,6.0,0,0,943,1,1
455022,1.0,7.7,6.0,0,0,946,1,1
455042,1.0,7.7,6.0,0,0,944,1,1
455062,1.0,7.7,6.1,0,0,945,1,1
455082,1.0,7.7,6.1,0,0,946,1,1
455102,1.0,7.7,6.1,0,0,948,1,1
455122,1.0,7.7,6.0,0,0,945,1,1
455142,1.0,7.7,6.1,0,0,944,1,1
455162,1.0,7.7,6.1,0,0,945,1,1
455182,1.0,7.7,6.0,0,0,943,1,1
455202,1.0,7.7,6.0,0,0,944,1,1
455222,1.0,7.7,6.0,0,0,946,1,1
455242,1.0,7.7,6.1,0,0,947,1,1
455262,1.0,7.7,6.1,0,0,948,1,1
455282,1.0,7.6,6.0,0,0,947,1,1
455302,1.0,7.7,6.1,0,0,947,1,1
455322,1.0,7.7,6.1,0,0,945,1,1
455342,1.0,7.7,6.1,0,0,946,1,1
455362,1.0,7.7,6.1,0,0,946,1,1
455382,1.0,7.7,6.1,0,0,945,1,1
455402,1.0,7.7,6.1,0,0,944,1,1
455422,1.0,7.7,6.1,0,0,946,1,1
455442,1.0,7.7,6.0,0,0,945,1,1
455462,1.0,7.7,6.0,0,0,943,1,1
455482,1.0,7.7,6.1,0,0,944,1,1
455502,1.0,7.7,6.1,0,0,946,1,1
455522,1.0,7.7,6.1,0,0,945,1,1
455542,1.3,7.7,0.7,0,0,948,1,1
455562,1.0,6.0,7.6,0,0,946,1,1
455582,0.6,7.2,8.4,0,0,947,1,1
455602,0.4,7.6,6.7,0,0,946,1,1
455622,0.5,7.7,8.0,0,0,945,1,1
455642,-0.3,5.4,22.6,0,0,946,1,1
455662,1.8,11.0,9.7,0,0,945,1,1
455682,1.0,8.1,6.1,0,0,946,1,1
455702,1.0,6.3,5.4,0,0,945,1,1
455722,2.1,8.2,4.5,0,0,946,1,1
455742,0.8,7.4,1.2,0,0,943,1,1
455762,1.9,8.6,1.5,0,0,945,1,1
455782,1.9,7.9,-1.1,0,0,944,1,1
455802,2.0,7.5,-0.7,0,0,945,1,1
455822,1.7,5.8,-0.6,0,0,949,1,1
455842,1.4,5.2,0.0,0,0,946,1,1
455862,2.5,8.0,6.1,0,0,946,1,1
455882,2.0,10.4,7.4,0,0,945,1,1
455902,1.3,8.7,6.2,0,0,945,1,1
455922,2.8,10.3,7.8,0,0,945,1,1
455942,0.5,1.6,7.5,0,0,945,1,1
455962,1.8,12.1,3.6,0,0,946,1,1
455982,1.4,4.9,7.0,0,0,946,1,1
456002,1.6,7.5,2.9,0,0,945,1,1
456022,1.9,6.8,4.2,0,0,943,1,1
456042,1.9,8.5,5.9,0,0,946,1,1
456062,1.1,8.4,6.7,0,0,946,1,1
456082,1.2,8.3,6.8,0,0,946,1,1
456102,1.2,8.0,6.5,0,0,948,1,1
456122,1.3,7.8,5.3,0,0,947,1,1
456142,1.3,8.0,5.8,0,0,946,1,1
456162,1.3,7.9,5.8,0,0,945,1,1
456182,1.2,7.7,5.9,0,0,943,1,1
456202,1.2,8.0,6.1,0,0,946,1,1
456222,1.2,8.0,6.2,0,0,946,1,1
456242,1.2,7.6,5.8,0,0,947,1,1
456262,1.3,7.7,5.8,0,0,943,1,1
456282,1.3,7.7,6.0,0,0,946,1,1
456302,1.2,7.6,5.9,0,0,945,1,1
456322,1.2,7.7,5.8,0,0,943,1,1
456342,1.2,7.9,5.9,0,0,946,1,1
456362,1.2,7.6,5.8,0,0,945,1,1
456382,1.2,7.7,5.8,0,0,943,1,1
456402,1.2,7.9,5.9,0,0,948,1,1
456422,1.2,7.8,5.9,0,0,945,1,1
456442,1.3,7.7,5.8,0,0,945,1,1
456462,1.2,7.8,5.9,0,0,945,1,1
456482,1.2,7.8,5.9,0,0,945,1,1
456502,1.2,7.7,5.9,0,0,947,1,1
456522,1.2,7.8,5.9,0,0,948,1,1
456542,1.2,7.8,5.9,0,0,946,1,1
456562,1.2,7.7,5.8,0,0,945,1,1
456582,1.2,7.8,5.9,0,0,946,1,1
456602,1.2,7.8,5.9,0,0,943,1,1
456622,1.3,7.7,5.9,0,0,943,1,1
456642,1.2,7.8,5.9,0,0,945,1,1
456662,1.2,7.8,5.9,0,0,945,1,1
456682,1.2,7.8,5.9,0,0,947,1,1
456702,1.2,7.8,5.9,0,0,943,1,1
456722,1.2,7.8,5.9,0,0,945,1,1
456742,1.2,7.8,5.9,0,0,945,1,1
456762,1.2,7.7,5.9,0,0,945,1,1
456782,1.2,7.8,5.9,0,0,944,1,1
456802,1.2,7.8,5.9,0,0,946,1,1
456822,1.2,7.8,5.9,0,0,945,1,1
456842,1.2,7.8,5.9,0,0,945,1,1
456862,1.2,7.8,5.9,0,0,946,1,1
456882,1.1,7.4,5.5,0,0,942,1,1
456902,-0.2,3.5,6.2,0,0,944,1,1
456922,1.0,7.7,4.4,0,0,943,1,1
456942,1.0,9.9,5.3,0,0,945,1,1
456962,0.8,9.8,8.3,0,0,947,1,1
456982,1.0,10.1,10.2,0,0,947,1,1
457002,1.1,10.5,9.1,0,0,948,1,1
457022,1.3,8.8,4.2,0,0,945,1,1
457042,0.8,7.1,2.9,0,0,946,1,1
457062,1.9,7.1,2.4,0,0,947,1,1
457082,1.5,7.6,1.1,0,0,944,1,1
457102,2.2,9.2,3.6,0,0,945,1,1
457122,3.0,8.2,-0.3,0,0,944,1,1
457142,3.0,7.3,-0.7,0,0,943,1,1
457162,3.2,7.0,1.8,0,0,942,1,1
457182,2.6,6.7,-0.9,0,0,944,1,1
457202,1.4,6.7,3.7,0,0,946,1,1
457222,1.5,8.4,7.0,0,0,944,1,1
457242,-6.1,3.6,-2.9,0,0,947,1,1
457262,1.9,13.6,13.4,0,0,946,1,1
457282,0.4,8.1,6.6,0,0,945,1,1
457302,0.6,12.8,9.3,0,0,945,1,1
457322,0.4,7.3,7.4,0,0,946,1,1
457342,0.6,8.0,7.3,0,0,945,1,1
457362,0.2,9.8,4.3,0,0,946,1,1
457382,1.0,6.9,7.4,0,0,947,1,1
457402,1.4,6.8,4.1,0,0,946,1,1
457422,1.3,7.2,4.3,0,0,944,1,1
457442,1.3,5.7,3.4,0,0,946,1,1
457462,1.1,7.8,7.5,0,0,944,1,1
457482,1.2,8.3,6.4,0,0,946,1,1
457502,0.9,9.1,8.4,0,0,944,1,1
457522,0.9,8.4,7.1,0,0,946,1,1
457542,0.9,8.3,6.6,0,0,949,1,1
457562,1.1,7.4,5.1,0,0,946,1,1
457582,1.1,7.2,5.4,0,0,945,1,1
457602,1.1,7.7,6.4,0,0,945,1,1
457622,1.1,8.2,5.4,0,0,945,1,1
457642,1.0,7.7,6.2,0,0,946,1,1
457662,1.0,7.9,6.0,0,0,945,1,1
457682,1.0,7.7,6.1,0,0,944,1,1
457702,1.1,7.6,5.6,0,0,945,1,1
457722,1.1,7.7,5.9,0,0,944,1,1
457742,1.0,7.8,6.0,0,0,943,1,1
457762,1.1,7.8,6.0,0,0,946,1,1
457782,1.1,7.7,6.0,0,0,944,1,1
457802,1.1,7.8,6.0,0,0,945,1,1
457822,1.0,7.7,5.9,0,0,947,1,1
457842,1.1,7.7,5.9,0,0,946,1,1
457862,1.0,7.8,6.0,0,0,944,1,1
457882,1.0,7.8,5.9,0,0,946,1,1
457902,1.1,7.7,5.9,0,0,944,1,1
457922,1.0,7.7,6.0,0,0,947,1,1
457942,1.1,7.8,6.0,0,0,947,1,1
457962,1.0,7.7,5.9,0,0,944,1,1
457982,1.1,7.8,6.0,0,0,946,1,1
458002,1.1,7.8,6.0,0,0,946,1,1
458022,1.1,7.7,5.9,0,0,943,1,1
458042,1.0,7.8,6.0,0,0,946,1,1
458062,1.0,7.8,6.0,0,0,945,1,1
458082,1.1,7.7,5.9,0,0,944,1,1
458102,1.0,7.7,5.9,0,0,948,1,1
458122,1.1,7.8,6.0,0,0,945,1,1
458142,1.1,7.8,5.9,0,0,947,1,1
458162,1.0,7.7,6.0,0,0,945,1,1
458182,1.1,7.8,6.0,0,0,945,1,1
458202,1.1,7.7,6.0,0,0,945,1,1
458222,1.0,7.7,5.9,0,0,944,1,1
458242,1.0,7.8,6.0,0,0,946,1,1
458262,1.1,7.8,6.0,0,0,946,1,1
458282,1.1,7.7,6.0,0,0,945,1,1
458302,1.1,7.7,6.0,0,0,945,1,1
458322,1.1,7.7,6.0,0,0,942,1,1
458342,1.0,7.8,6.0,0,0,947,1,1
458362,1.0,7.8,6.0,0,0,946,1,1
458382,1.0,7.8,6.0,0,0,948,1,1
458402,1.0,6.9,5.7,0,0,946,1,1
458422,0.8,7.9,2.1,0,0,946,1,1
458442,0.9,7.4,7.9,0,0,946,1,1
458462,0.4,10.9,10.6,0,0,947,1,1
458482,-0.8,14.2,6.6,0,0,945,1,1
458502,-0.3,8.4,4.0,0,0,944,1,1
458522,0.6,7.6,4.7,0,0,945,1,1
458542,1.9,7.7,5.9,0,0,945,1,1
458562,0.6,6.8,1.7,0,0,944,1,1
458582,1.6,7.7,0.8,0,0,944,1,1
458602,1.5,6.3,-0.5,0,0,943,1,1
458622,2.3,7.2,-4.0,0,0,946,1,1
458642,5.1,8.7,6.0,0,0,944,1,1
458662,4.5,6.8,4.1,0,0,944,1,1
458682,3.1,8.4,3.2,0,0,945,1,1
458702,4.2,7.6,3.9,0,0,946,1,1
458722,1.0,8.7,5.7,0,0,946,1,1
458742,1.6,10.2,6.7,0,0,945,1,1
458762,2.4,10.0,7.0,0,0,944,1,1
458782,1.9,9.0,7.6,0,0,945,1,1
458802,2.1,8.5,7.2,0,0,948,1,1
458822,1.7,7.0,5.9,0,0,945,1,1
458842,1.7,7.4,5.6,0,0,945,1,1
458862,1.2,6.6,5.6,0,0,943,1,1
458882,1.6,7.3,5.3,0,0,944,1,1
458902,1.4,8.7,4.6,0,0,943,1,1
458922,1.4,8.4,6.7,0,0,945,1,1
458942,1.3,8.0,6.4,0,0,946,1,1
458962,1.2,8.4,6.1,0,0,947,1,1
458982,1.3,7.8,5.7,0,0,944,1,1
459002,1.3,7.7,5.3,0,0,946,1,1
459022,1.3,7.7,5.6,0,0,946,1,1
459042,1.3,7.8,5.5,0,0,944,1,1
459062,1.3,8.0,6.0,0,0,945,1,1
459082,1.3,8.0,5.8,0,0,946,1,1
459102,1.3,7.9,5.8,0,0,945,1,1
459122,1.3,7.8,5.7,0,0,947,1,1
459142,1.3,7.8,5.7,0,0,948,1,1
459162,1.3,7.8,5.7,0,0,944,1,1
459182,1.3,8.0,5.8,0,0,945,1,1
459202,1.3,7.9,5.8,0,0,948,1,1
459222,1.3,7.9,5.7,0,0,945,1,1
459242,1.3,7.8,5.7,0,0,947,1,1
459262,1.3,7.9,5.7,0,0,945,1,1
459282,1.3,7.9,5.8,0,0,945,1,1
459302,1.3,7.9,5.8,0,0,945,1,1
459322,1.3,7.8,5.7,0,0,946,1,1
459342,1.3,7.9,5.7,0,0,946,1,1
459362,1.3,7.9,5.7,0,0,946,1,1
459382,1.3,7.9,5.7,0,0,946,1,1
459402,1.3,7.9,5.7,0,0,950,1,1
459422,1.3,7.9,5.7,0,0,946,1,1
459442,1.3,7.9,5.7,0,0,944,1,1
459462,1.3,7.9,5.8,0,0,943,1,1
459482,1.3,7.8,5.8,0,0,943,1,1
459502,1.3,7.9,5.8,0,0,944,1,1
459522,1.3,7.9,5.7,0,0,944,1,1
459542,1.3,7.9,5.7,0,0,947,1,1
459562,1.3,7.9,5.7,0,0,946,1,1
459582,1.3,7.9,5.7,0,0,945,1,1
459602,1.3,7.9,5.8,0,0,944,1,1
459622,1.3,7.9,5.8,0,0,946,1,1
459642,1.3,7.9,5.7,0,0,945,1,1
459662,1.3,7.9,5.7,0,0,943,1,1
459682,1.3,7.9,5.7,0,0,944,1,1
459702,1.3,7.8,5.8,0,0,945,1,1
459722,1.3,7.8,5.8,0,0,943,1,1
459742,1.3,7.9,5.7,0,0,943,1,1
459762,1.3,7.9,5.7,0,0,944,1,1
459782,1.3,7.9,5.7,0,0,942,1,1
459802,1.1,5.1,2.0,0,0,945,1,1
459822,0.8,7.8,7.6,0,0,947,1,1
459842,1.4,7.7,6.2,0,0,947,1,1
459862,1.1,8.9,4.8,0,0,947,1,1
459882,1.2,8.1,10.4,0,0,944,1,1
459902,0.5,9.0,5.4,0,0,945,1,1
459922,0.7,9.3,7.4,0,0,947,1,1
459942,0.8,11.2,7.2,0,0,945,1,1
459962,0.6,10.6,7.0,0,0,944,1,1
459982,2.0,9.4,7.1,0,0,945,1,1
460002,0.8,6.3,3.1,0,0,944,1,1
460022,1.3,7.3,2.2,0,0,939,1,1
460042,2.3,8.2,3.5,0,0,946,1,1
460062,2.2,6.4,0.9,0,0,946,1,1
460082,3.3,6.7,-0.3,0,0,944,1,1
460102,3.4,6.2,-1.9,0,0,946,1,1
460122,1.8,3.4,-8.1,0,0,946,1,1
460142,2.2,9.3,1.4,0,0,945,1,1
460162,2.2,11.5,3.2,0,0,945,1,1
460182,-1.0,7.6,4.4,0,0,948,1,1
460202,2.3,8.4,10.3,0,0,947,1,1
460222,1.8,13.3,1.9,0,0,948,1,1
460242,2.5,10.9,10.1,0,0,944,1,1
460262,0.9,5.8,6.0,0,0,944,1,1
460282,1.2,6.6,4.1,0,0,945,1,1
460302,1.5,7.2,2.5,0,0,946,1,1
460322,1.2,7.6,5.8,0,0,944,1,1
460342,1.6,7.6,4.2,0,0,948,1,1
460362,1.3,8.4,5.3,0,0,945,1,1
460382,1.2,8.0,5.8,0,0,944,1,1
460402,1.3,8.1,4.9,0,0,949,1,1
460422,1.2,7.8,5.7,0,0,946,1,1
460442,1.3,7.9,4.9,0,0,946,1,1
460462,1.2,7.9,5.4,0,0,946,1,1
460482,1.2,7.9,5.3,0,0,945,1,1
460502,1.2,8.0,6.0,0,0,945,1,1
460522,1.2,8.2,5.7,0,0,946,1,1
460542,1.2,8.1,5.7,0,0,946,1,1
460562,1.2,8.0,5.5,0,0,946,1,1
460582,1.2,7.9,5.5,0,0,946,1,1
460602,1.2,8.0,5.6,0,0,943,1,1
460622,1.2,8.1,5.6,0,0,944,1,1
460642,1.2,8.0,5.6,0,0,944,1,1
460662,1.2,8.0,5.6,0,0,943,1,1
460682,1.2,7.9,5.5,0,0,948,1,1
460702,1.2,8.0,5.7,0,0,946,1,1
460722,1.2,8.0,5.5,0,0,945,1,1
460742,1.2,8.0,5.7,0,0,947,1,1
460762,1.3,7.9,5.5,0,0,946,1,1
460782,1.2,8.0,5.7,0,0,948,1,1
460802,1.2,7.9,5.6,0,0,944,1,1
460822,1.2,8.1,5.6,0,0,948,1,1
460842,1.2,8.0,5.6,0,0,945,1,1
460862,1.2,8.0,5.6,0,0,943,1,1
460882,1.2,8.0,5.5,0,0,946,1,1
460902,1.2,8.0,5.6,0,0,945,1,1
460922,1.3,8.0,5.6,0,0,946,1,1
460942,1.2,8.0,5.6,0,0,945,1,1
460962,1.2,8.0,5.6,0,0,944,1,1
460982,1.2,8.0,5.6,0,0,948,1,1
461002,1.2,8.0,5.6,0,0,946,1,1
461022,1.2,8.0,5.6,0,0,946,1,1
461042,1.2,8.0,5.6,0,0,945,1,1
461062,1.2,8.0,5.6,0,0,945,1,1
461082,1.2,8.0,5.6,0,0,945,1,1
461102,1.2,8.0,5.6,0,0,947,1,1
461122,1.2,8.0,5.6,0,0,946,1,1
461142,1.3,8.0,5.6,0,0,944,1,1
461162,1.2,8.0,5.6,0,0,946,1,1
461182,1.2,8.0,5.6,0,0,943,1,1
461202,1.2,7.9,5.6,0,0,946,1,1
461222,1.5,5.3,10.9,0,0,946,1,1
461242,1.4,10.6,4.9,0,0,946,1,1
461262,1.0,8.9,7.7,0,0,948,1,1
461282,1.7,7.1,3.2,0,0,952,1,1
461302,1.3,11.2,4.4,0,0,947,1,1
461322,0.8,11.6,9.6,0,0,945,1,1
461342,4.2,-0.1,13.6,0,0,946,1,1
461362,1.5,9.8,9.0,0,0,943,1,1
461382,1.5,7.2,7.3,0,0,947,1,1
461402,1.7,8.7,7.0,0,0,945,1,1
461422,2.3,10.7,5.2,0,0,946,1,1
461442,1.8,10.2,2.8,0,0,945,1,1
461462,1.1,6.3,1.7,0,0,943,1,1
461482,1.6,6.5,4.0,0,0,945,1,1
461502,3.2,7.1,0.6,0,0,944,1,1
461522,3.6,7.8,-1.9,0,0,946,1,1
461542,3.9,7.0,4.0,0,0,946,1,1
461562,2.1,5.6,0.7,0,0,946,1,1
461582,2.0,11.2,1.4,0,0,946,1,1
461602,4.6,0.6,-2.4,0,0,947,1,1
461622,0.9,11.0,4.2,0,0,946,1,1
461642,1.6,11.9,8.9,0,0,946,1,1
461662,1.6,11.6,7.2,0,0,945,1,1
461682,1.4,9.1,6.4,0,0,946,1,1
461702,1.0,7.9,5.7,0,0,945,1,1
461722,1.9,6.7,4.8,0,0,942,1,1
461742,0.8,8.1,8.9,0,0,946,1,1
461762,1.2,8.5,5.6,0,0,946,1,1
461782,1.5,6.9,3.5,0,0,944,1,1
461802,1.3,7.3,6.8,0,0,948,1,1
461822,1.4,7.8,4.3,0,0,947,1,1
461842,1.3,8.1,5.8,0,0,944,1,1
461862,1.3,7.5,5.2,0,0,945,1,1
461882,1.2,7.7,5.4,0,0,943,1,1
461902,1.3,8.0,5.4,0,0,947,1,1
461922,1.2,8.0,5.6,0,0,947,1,1
461942,1.3,7.9,5.4,0,0,946,1,1
461962,1.3,8.1,5.6,0,0,946,1,1
461982,1.3,8.1,5.6,0,0,945,1,1
462002,1.3,8.1,5.6,0,0,944,1,1
462022,1.3,8.0,5.6,0,0,944,1,1
462042,1.3,8.1,5.7,0,0,945,1,1
462062,1.3,8.0,5.6,0,0,946,1,1
462082,1.2,8.0,5.5,0,0,947,1,1
462102,1.3,7.9,5.6,0,0,945,1,1
462122,1.0,7.5,6.2,0,0,945,1,1
462142,1.3,8.7,6.4,0,0,944,1,1
462162,1.3,7.8,5.7,0,0,945,1,1
462182,1.2,7.9,5.4,0,0,945,1,1
462202,1.3,8.2,5.5,0,0,945,1,1
462222,1.2,8.4,6.0,0,0,946,1,1
462242,1.2,7.5,5.4,0,0,944,1,1
462262,1.2,8.1,5.7,0,0,945,1,1
462282,1.3,8.3,5.8,0,0,944,1,1
462302,1.2,7.7,5.5,0,0,944,1,1
462322,1.3,7.9,5.6,0,0,946,1,1
462342,1.3,8.1,5.7,0,0,946,1,1
462362,1.3,8.1,5.6,0,0,946,1,1
462382,1.3,7.8,5.6,0,0,946,1,1
462402,1.2,8.0,5.6,0,0,946,1,1
462422,1.2,8.1,5.7,0,0,944,1,1
462442,1.2,7.8,5.6,0,0,945,1,1
462462,1.2,8.0,5.6,0,0,946,1,1
462482,1.3,8.1,5.7,0,0,945,1,1
462502,1.3,7.8,5.5,0,0,944,1,1
462522,1.3,7.9,5.6,0,0,945,1,1
462542,1.3,8.1,5.7,0,0,944,1,1
462562,1.2,7.9,5.6,0,0,943,1,1
462582,1.2,7.9,5.6,0,0,946,1,1
462602,1.3,8.1,5.6,0,0,945,1,1
462622,1.3,8.0,5.6,0,0,946,1,1
462642,1.3,7.9,5.6,0,0,948,1,1
462662,1.3,8.0,5.6,0,0,946,1,1
462682,1.3,8.1,5.7,0,0,944,1,1
462702,1.2,7.9,5.6,0,0,948,1,1
462722,1.2,7.9,5.8,0,0,947,1,1
462742,1.3,8.1,5.6,0,0,945,1,1
462762,1.3,8.1,5.8,0,0,945,1,1
462782,1.3,7.9,5.7,0,0,944,1,1
462802,1.3,7.9,5.6,0,0,946,1,1
462822,1.3,7.6,6.0,0,0,944,1,1
462842,1.4,7.8,5.5,0,0,942,1,1
462862,1.3,7.7,5.8,0,0,943,1,1
462882,1.4,7.8,5.8,0,0,948,1,1
462902,1.3,7.9,5.9,0,0,945,1,1
462922,1.4,7.9,6.0,0,0,947,1,1
462942,1.4,7.9,6.1,0,0,943,1,1
462962,1.5,7.9,6.1,0,0,946,1,1
462982,1.5,7.6,5.9,0,0,946,1,1
463002,1.5,7.6,5.7,0,0,945,1,1
463022,1.5,7.6,5.7,0,0,947,1,1
463042,1.5,7.7,5.8,0,0,947,1,1
463062,1.5,7.5,5.9,0,0,945,1,1
463082,1.6,7.6,5.9,0,0,946,1,1
463102,1.6,7.7,6.0,0,0,947,1,1
463122,1.6,7.6,6.1,0,0,944,1,1
463142,1.6,7.6,5.9,0,0,946,1,1
463162,1.5,7.5,6.0,0,0,946,1,1
463182,1.5,7.6,6.0,0,0,944,1,1
463202,1.5,7.6,5.9,0,0,945,1,1
463222,1.5,7.4,6.1,0,0,946,1,1
463242,1.6,7.8,6.0,0,0,946,1,1
463262,1.5,7.6,5.9,0,0,947,1,1
463282,1.5,7.7,6.1,0,0,945,1,1
463302,1.5,7.7,5.8,0,0,948,1,1
463322,1.5,7.5,6.1,0,0,947,1,1
463342,1.5,7.6,5.9,0,0,946,1,1
463362,1.4,7.6,5.9,0,0,946,1,1
463382,1.4,7.8,6.2,0,0,946,1,1
463402,1.4,7.8,6.1,0,0,944,1,1
463422,1.4,7.8,6.2,0,0,945,1,1
463442,1.4,7.6,6.0,0,0,943,1,1
463462,1.4,7.7,6.0,0,0,946,1,1
463482,1.4,7.6,6.0,0,0,948,1,1
463502,1.4,7.7,6.0,0,0,946,1,1
463522,1.4,7.7,6.0,0,0,943,1,1
463542,1.4,7.6,6.0,0,0,945,1,1
463562,1.4,7.7,5.9,0,0,944,1,1
463582,1.4,7.7,6.0,0,0,943,1,1
463602,1.4,7.6,6.0,0,0,944,1,1
<DISCONNECTED>

